wavelength,value
4000.00,0.7630
3999.00,0.7627
3998.00,0.7624
3997.00,0.7622
3996.00,0.7621
3995.00,0.7620
3994.00,0.7619
3993.00,0.7617
3992.00,0.7614
3991.00,0.7611
3990.00,0.7608
3989.00,0.7606
3988.00,0.7605
3987.00,0.7606
3986.00,0.7608
3985.00,0.7610
3984.00,0.7610
3983.00,0.7608
3982.00,0.7604
3981.00,0.7599
3980.00,0.7595
3979.00,0.7593
3978.00,0.7593
3977.00,0.7592
3976.00,0.7589
3975.00,0.7585
3974.00,0.7581
3973.00,0.7578
3972.00,0.7575
3971.00,0.7572
3970.00,0.7569
3969.00,0.7565
3968.00,0.7562
3967.00,0.7559
3966.00,0.7557
3965.00,0.7556
3964.00,0.7554
3963.00,0.7552
3962.00,0.7550
3961.00,0.7548
3960.00,0.7546
3959.00,0.7545
3958.00,0.7543
3957.00,0.7540
3956.00,0.7538
3955.00,0.7536
3954.00,0.7534
3953.00,0.7532
3952.00,0.7530
3951.00,0.7530
3950.00,0.7529
3949.00,0.7526
3948.00,0.7521
3947.00,0.7518
3946.00,0.7516
3945.00,0.7514
3944.00,0.7511
3943.00,0.7509
3942.00,0.7507
3941.00,0.7506
3940.00,0.7505
3939.00,0.7502
3938.00,0.7500
3937.00,0.7500
3936.00,0.7502
3935.00,0.7505
3934.00,0.7506
3933.00,0.7504
3932.00,0.7497
3931.00,0.7488
3930.00,0.7480
3929.00,0.7474
3928.00,0.7472
3927.00,0.7472
3926.00,0.7471
3925.00,0.7468
3924.00,0.7464
3923.00,0.7462
3922.00,0.7460
3921.00,0.7457
3920.00,0.7454
3919.00,0.7451
3918.00,0.7446
3917.00,0.7440
3916.00,0.7436
3915.00,0.7433
3914.00,0.7431
3913.00,0.7428
3912.00,0.7426
3911.00,0.7424
3910.00,0.7423
3909.00,0.7424
3908.00,0.7423
3907.00,0.7422
3906.00,0.7420
3905.00,0.7415
3904.00,0.7407
3903.00,0.7402
3902.00,0.7400
3901.00,0.7398
3900.00,0.7394
3899.00,0.7393
3898.00,0.7392
3897.00,0.7389
3896.00,0.7386
3895.00,0.7385
3894.00,0.7385
3893.00,0.7384
3892.00,0.7382
3891.00,0.7381
3890.00,0.7381
3889.00,0.7379
3888.00,0.7378
3887.00,0.7380
3886.00,0.7385
3885.00,0.7387
3884.00,0.7385
3883.00,0.7377
3882.00,0.7367
3881.00,0.7356
3880.00,0.7349
3879.00,0.7347
3878.00,0.7345
3877.00,0.7343
3876.00,0.7340
3875.00,0.7336
3874.00,0.7331
3873.00,0.7330
3872.00,0.7330
3871.00,0.7326
3870.00,0.7321
3869.00,0.7321
3868.00,0.7325
3867.00,0.7324
3866.00,0.7321
3865.00,0.7316
3864.00,0.7311
3863.00,0.7310
3862.00,0.7310
3861.00,0.7307
3860.00,0.7306
3859.00,0.7305
3858.00,0.7305
3857.00,0.7305
3856.00,0.7306
3855.00,0.7306
3854.00,0.7295
3853.00,0.7286
3852.00,0.7296
3851.00,0.7298
3850.00,0.7292
3849.00,0.7285
3848.00,0.7284
3847.00,0.7288
3846.00,0.7294
3845.00,0.7296
3844.00,0.7294
3843.00,0.7288
3842.00,0.7283
3841.00,0.7276
3840.00,0.7271
3839.00,0.7273
3838.00,0.7283
3837.00,0.7292
3836.00,0.7295
3835.00,0.7290
3834.00,0.7279
3833.00,0.7267
3832.00,0.7259
3831.00,0.7257
3830.00,0.7256
3829.00,0.7253
3828.00,0.7248
3827.00,0.7245
3826.00,0.7244
3825.00,0.7245
3824.00,0.7247
3823.00,0.7250
3822.00,0.7249
3821.00,0.7248
3820.00,0.7254
3819.00,0.7258
3818.00,0.7256
3817.00,0.7251
3816.00,0.7245
3815.00,0.7242
3814.00,0.7235
3813.00,0.7225
3812.00,0.7218
3811.00,0.7216
3810.00,0.7219
3809.00,0.7223
3808.00,0.7227
3807.00,0.7228
3806.00,0.7229
3805.00,0.7226
3804.00,0.7222
3803.00,0.7218
3802.00,0.7212
3801.00,0.7213
3800.00,0.7219
3799.00,0.7218
3798.00,0.7212
3797.00,0.7206
3796.00,0.7203
3795.00,0.7202
3794.00,0.7200
3793.00,0.7198
3792.00,0.7198
3791.00,0.7200
3790.00,0.7201
3789.00,0.7200
3788.00,0.7198
3787.00,0.7197
3786.00,0.7194
3785.00,0.7191
3784.00,0.7189
3783.00,0.7189
3782.00,0.7192
3781.00,0.7197
3780.00,0.7201
3779.00,0.7203
3778.00,0.7201
3777.00,0.7194
3776.00,0.7187
3775.00,0.7182
3774.00,0.7181
3773.00,0.7183
3772.00,0.7185
3771.00,0.7188
3770.00,0.7190
3769.00,0.7190
3768.00,0.7188
3767.00,0.7184
3766.00,0.7180
3765.00,0.7178
3764.00,0.7179
3763.00,0.7179
3762.00,0.7180
3761.00,0.7181
3760.00,0.7181
3759.00,0.7181
3758.00,0.7180
3757.00,0.7179
3756.00,0.7180
3755.00,0.7183
3754.00,0.7187
3753.00,0.7187
3752.00,0.7179
3751.00,0.7167
3750.00,0.7168
3749.00,0.7178
3748.00,0.7185
3747.00,0.7187
3746.00,0.7186
3745.00,0.7184
3744.00,0.7192
3743.00,0.7204
3742.00,0.7205
3741.00,0.7201
3740.00,0.7203
3739.00,0.7212
3738.00,0.7225
3737.00,0.7232
3736.00,0.7226
3735.00,0.7215
3734.00,0.7207
3733.00,0.7200
3732.00,0.7194
3731.00,0.7191
3730.00,0.7189
3729.00,0.7186
3728.00,0.7183
3727.00,0.7182
3726.00,0.7183
3725.00,0.7184
3724.00,0.7184
3723.00,0.7184
3722.00,0.7185
3721.00,0.7186
3720.00,0.7187
3719.00,0.7189
3718.00,0.7193
3717.00,0.7198
3716.00,0.7203
3715.00,0.7208
3714.00,0.7213
3713.00,0.7216
3712.00,0.7215
3711.00,0.7217
3710.00,0.7222
3709.00,0.7223
3708.00,0.7222
3707.00,0.7223
3706.00,0.7225
3705.00,0.7228
3704.00,0.7232
3703.00,0.7237
3702.00,0.7241
3701.00,0.7246
3700.00,0.7251
3699.00,0.7257
3698.00,0.7265
3697.00,0.7275
3696.00,0.7285
3695.00,0.7295
3694.00,0.7304
3693.00,0.7313
3692.00,0.7324
3691.00,0.7341
3690.00,0.7362
3689.00,0.7382
3688.00,0.7392
3687.00,0.7390
3686.00,0.7382
3685.00,0.7377
3684.00,0.7377
3683.00,0.7382
3682.00,0.7389
3681.00,0.7396
3680.00,0.7405
3679.00,0.7416
3678.00,0.7426
3677.00,0.7433
3676.00,0.7443
3675.00,0.7469
3674.00,0.7497
3673.00,0.7505
3672.00,0.7506
3671.00,0.7511
3670.00,0.7525
3669.00,0.7549
3668.00,0.7565
3667.00,0.7572
3666.00,0.7578
3665.00,0.7587
3664.00,0.7600
3663.00,0.7616
3662.00,0.7637
3661.00,0.7659
3660.00,0.7682
3659.00,0.7701
3658.00,0.7716
3657.00,0.7727
3656.00,0.7740
3655.00,0.7755
3654.00,0.7769
3653.00,0.7783
3652.00,0.7803
3651.00,0.7826
3650.00,0.7847
3649.00,0.7861
3648.00,0.7877
3647.00,0.7897
3646.00,0.7915
3645.00,0.7928
3644.00,0.7940
3643.00,0.7953
3642.00,0.7970
3641.00,0.7989
3640.00,0.8008
3639.00,0.8027
3638.00,0.8047
3637.00,0.8068
3636.00,0.8089
3635.00,0.8111
3634.00,0.8133
3633.00,0.8153
3632.00,0.8170
3631.00,0.8184
3630.00,0.8197
3629.00,0.8220
3628.00,0.8261
3627.00,0.8296
3626.00,0.8316
3625.00,0.8332
3624.00,0.8350
3623.00,0.8372
3622.00,0.8395
3621.00,0.8416
3620.00,0.8437
3619.00,0.8460
3618.00,0.8487
3617.00,0.8509
3616.00,0.8527
3615.00,0.8545
3614.00,0.8562
3613.00,0.8581
3612.00,0.8603
3611.00,0.8625
3610.00,0.8645
3609.00,0.8664
3608.00,0.8689
3607.00,0.8720
3606.00,0.8752
3605.00,0.8778
3604.00,0.8801
3603.00,0.8823
3602.00,0.8846
3601.00,0.8872
3600.00,0.8900
3599.00,0.8925
3598.00,0.8943
3597.00,0.8953
3596.00,0.8965
3595.00,0.8988
3594.00,0.9019
3593.00,0.9050
3592.00,0.9075
3591.00,0.9094
3590.00,0.9111
3589.00,0.9129
3588.00,0.9159
3587.00,0.9204
3586.00,0.9247
3585.00,0.9272
3584.00,0.9287
3583.00,0.9300
3582.00,0.9314
3581.00,0.9328
3580.00,0.9343
3579.00,0.9360
3578.00,0.9378
3577.00,0.9396
3576.00,0.9414
3575.00,0.9432
3574.00,0.9452
3573.00,0.9474
3572.00,0.9499
3571.00,0.9526
3570.00,0.9551
3569.00,0.9570
3568.00,0.9578
3567.00,0.9587
3566.00,0.9610
3565.00,0.9641
3564.00,0.9672
3563.00,0.9703
3562.00,0.9730
3561.00,0.9751
3560.00,0.9766
3559.00,0.9777
3558.00,0.9789
3557.00,0.9801
3556.00,0.9812
3555.00,0.9824
3554.00,0.9837
3553.00,0.9854
3552.00,0.9875
3551.00,0.9891
3550.00,0.9900
3549.00,0.9903
3548.00,0.9907
3547.00,0.9917
3546.00,0.9930
3545.00,0.9938
3544.00,0.9936
3543.00,0.9926
3542.00,0.9911
3541.00,0.9894
3540.00,0.9880
3539.00,0.9871
3538.00,0.9868
3537.00,0.9868
3536.00,0.9865
3535.00,0.9858
3534.00,0.9848
3533.00,0.9840
3532.00,0.9835
3531.00,0.9835
3530.00,0.9839
3529.00,0.9847
3528.00,0.9858
3527.00,0.9874
3526.00,0.9896
3525.00,0.9920
3524.00,0.9942
3523.00,0.9961
3522.00,0.9972
3521.00,0.9977
3520.00,0.9981
3519.00,0.9989
3518.00,1.0002
3517.00,1.0019
3516.00,1.0040
3515.00,1.0062
3514.00,1.0084
3513.00,1.0101
3512.00,1.0111
3511.00,1.0118
3510.00,1.0126
3509.00,1.0138
3508.00,1.0156
3507.00,1.0176
3506.00,1.0198
3505.00,1.0225
3504.00,1.0257
3503.00,1.0291
3502.00,1.0318
3501.00,1.0337
3500.00,1.0352
3499.00,1.0370
3498.00,1.0392
3497.00,1.0413
3496.00,1.0432
3495.00,1.0448
3494.00,1.0460
3493.00,1.0468
3492.00,1.0476
3491.00,1.0487
3490.00,1.0503
3489.00,1.0523
3488.00,1.0545
3487.00,1.0564
3486.00,1.0573
3485.00,1.0572
3484.00,1.0568
3483.00,1.0569
3482.00,1.0581
3481.00,1.0600
3480.00,1.0617
3479.00,1.0626
3478.00,1.0625
3477.00,1.0616
3476.00,1.0603
3475.00,1.0593
3474.00,1.0587
3473.00,1.0586
3472.00,1.0588
3471.00,1.0594
3470.00,1.0603
3469.00,1.0611
3468.00,1.0614
3467.00,1.0610
3466.00,1.0600
3465.00,1.0583
3464.00,1.0563
3463.00,1.0545
3462.00,1.0535
3461.00,1.0529
3460.00,1.0522
3459.00,1.0510
3458.00,1.0492
3457.00,1.0471
3456.00,1.0453
3455.00,1.0439
3454.00,1.0428
3453.00,1.0419
3452.00,1.0411
3451.00,1.0404
3450.00,1.0401
3449.00,1.0401
3448.00,1.0402
3447.00,1.0401
3446.00,1.0396
3445.00,1.0388
3444.00,1.0381
3443.00,1.0377
3442.00,1.0377
3441.00,1.0380
3440.00,1.0388
3439.00,1.0404
3438.00,1.0423
3437.00,1.0442
3436.00,1.0457
3435.00,1.0469
3434.00,1.0479
3433.00,1.0489
3432.00,1.0502
3431.00,1.0518
3430.00,1.0533
3429.00,1.0546
3428.00,1.0554
3427.00,1.0562
3426.00,1.0570
3425.00,1.0578
3424.00,1.0589
3423.00,1.0605
3422.00,1.0626
3421.00,1.0647
3420.00,1.0662
3419.00,1.0668
3418.00,1.0670
3417.00,1.0670
3416.00,1.0676
3415.00,1.0685
3414.00,1.0694
3413.00,1.0695
3412.00,1.0685
3411.00,1.0669
3410.00,1.0648
3409.00,1.0623
3408.00,1.0592
3407.00,1.0556
3406.00,1.0519
3405.00,1.0483
3404.00,1.0452
3403.00,1.0425
3402.00,1.0401
3401.00,1.0374
3400.00,1.0342
3399.00,1.0305
3398.00,1.0264
3397.00,1.0223
3396.00,1.0186
3395.00,1.0157
3394.00,1.0131
3393.00,1.0106
3392.00,1.0077
3391.00,1.0045
3390.00,1.0010
3389.00,0.9972
3388.00,0.9933
3387.00,0.9897
3386.00,0.9864
3385.00,0.9833
3384.00,0.9804
3383.00,0.9780
3382.00,0.9761
3381.00,0.9742
3380.00,0.9721
3379.00,0.9699
3378.00,0.9675
3377.00,0.9651
3376.00,0.9626
3375.00,0.9600
3374.00,0.9575
3373.00,0.9551
3372.00,0.9530
3371.00,0.9510
3370.00,0.9488
3369.00,0.9465
3368.00,0.9440
3367.00,0.9414
3366.00,0.9384
3365.00,0.9351
3364.00,0.9314
3363.00,0.9281
3362.00,0.9252
3361.00,0.9226
3360.00,0.9200
3359.00,0.9171
3358.00,0.9139
3357.00,0.9107
3356.00,0.9075
3355.00,0.9047
3354.00,0.9023
3353.00,0.9002
3352.00,0.8983
3351.00,0.8963
3350.00,0.8939
3349.00,0.8911
3348.00,0.8879
3347.00,0.8848
3346.00,0.8821
3345.00,0.8797
3344.00,0.8774
3343.00,0.8752
3342.00,0.8729
3341.00,0.8706
3340.00,0.8684
3339.00,0.8664
3338.00,0.8643
3337.00,0.8618
3336.00,0.8589
3335.00,0.8560
3334.00,0.8532
3333.00,0.8507
3332.00,0.8483
3331.00,0.8461
3330.00,0.8441
3329.00,0.8422
3328.00,0.8404
3327.00,0.8389
3326.00,0.8374
3325.00,0.8357
3324.00,0.8336
3323.00,0.8313
3322.00,0.8290
3321.00,0.8267
3320.00,0.8246
3319.00,0.8227
3318.00,0.8209
3317.00,0.8192
3316.00,0.8176
3315.00,0.8161
3314.00,0.8147
3313.00,0.8131
3312.00,0.8116
3311.00,0.8102
3310.00,0.8090
3309.00,0.8077
3308.00,0.8063
3307.00,0.8049
3306.00,0.8036
3305.00,0.8022
3304.00,0.8006
3303.00,0.7989
3302.00,0.7973
3301.00,0.7955
3300.00,0.7939
3299.00,0.7924
3298.00,0.7912
3297.00,0.7902
3296.00,0.7893
3295.00,0.7884
3294.00,0.7874
3293.00,0.7864
3292.00,0.7853
3291.00,0.7841
3290.00,0.7828
3289.00,0.7814
3288.00,0.7799
3287.00,0.7785
3286.00,0.7773
3285.00,0.7763
3284.00,0.7752
3283.00,0.7742
3282.00,0.7733
3281.00,0.7722
3280.00,0.7711
3279.00,0.7700
3278.00,0.7690
3277.00,0.7680
3276.00,0.7670
3275.00,0.7661
3274.00,0.7652
3273.00,0.7643
3272.00,0.7635
3271.00,0.7626
3270.00,0.7616
3269.00,0.7604
3268.00,0.7591
3267.00,0.7579
3266.00,0.7568
3265.00,0.7558
3264.00,0.7549
3263.00,0.7540
3262.00,0.7531
3261.00,0.7522
3260.00,0.7513
3259.00,0.7507
3258.00,0.7502
3257.00,0.7497
3256.00,0.7490
3255.00,0.7482
3254.00,0.7472
3253.00,0.7461
3252.00,0.7449
3251.00,0.7440
3250.00,0.7433
3249.00,0.7428
3248.00,0.7424
3247.00,0.7421
3246.00,0.7418
3245.00,0.7414
3244.00,0.7409
3243.00,0.7403
3242.00,0.7399
3241.00,0.7394
3240.00,0.7388
3239.00,0.7382
3238.00,0.7375
3237.00,0.7367
3236.00,0.7358
3235.00,0.7349
3234.00,0.7339
3233.00,0.7327
3232.00,0.7310
3231.00,0.7291
3230.00,0.7269
3229.00,0.7247
3228.00,0.7224
3227.00,0.7201
3226.00,0.7178
3225.00,0.7155
3224.00,0.7131
3223.00,0.7109
3222.00,0.7088
3221.00,0.7069
3220.00,0.7049
3219.00,0.7030
3218.00,0.7010
3217.00,0.6989
3216.00,0.6968
3215.00,0.6949
3214.00,0.6932
3213.00,0.6914
3212.00,0.6895
3211.00,0.6876
3210.00,0.6859
3209.00,0.6842
3208.00,0.6827
3207.00,0.6812
3206.00,0.6798
3205.00,0.6782
3204.00,0.6766
3203.00,0.6749
3202.00,0.6732
3201.00,0.6716
3200.00,0.6701
3199.00,0.6687
3198.00,0.6673
3197.00,0.6659
3196.00,0.6644
3195.00,0.6630
3194.00,0.6617
3193.00,0.6604
3192.00,0.6590
3191.00,0.6577
3190.00,0.6563
3189.00,0.6550
3188.00,0.6536
3187.00,0.6522
3186.00,0.6509
3185.00,0.6495
3184.00,0.6482
3183.00,0.6468
3182.00,0.6455
3181.00,0.6442
3180.00,0.6429
3179.00,0.6416
3178.00,0.6404
3177.00,0.6391
3176.00,0.6377
3175.00,0.6364
3174.00,0.6352
3173.00,0.6339
3172.00,0.6327
3171.00,0.6314
3170.00,0.6303
3169.00,0.6291
3168.00,0.6279
3167.00,0.6268
3166.00,0.6258
3165.00,0.6246
3164.00,0.6234
3163.00,0.6223
3162.00,0.6211
3161.00,0.6200
3160.00,0.6189
3159.00,0.6179
3158.00,0.6170
3157.00,0.6162
3156.00,0.6155
3155.00,0.6148
3154.00,0.6141
3153.00,0.6133
3152.00,0.6122
3151.00,0.6110
3150.00,0.6097
3149.00,0.6084
3148.00,0.6071
3147.00,0.6060
3146.00,0.6050
3145.00,0.6040
3144.00,0.6031
3143.00,0.6023
3142.00,0.6016
3141.00,0.6010
3140.00,0.6003
3139.00,0.5995
3138.00,0.5985
3137.00,0.5974
3136.00,0.5963
3135.00,0.5952
3134.00,0.5943
3133.00,0.5935
3132.00,0.5927
3131.00,0.5920
3130.00,0.5912
3129.00,0.5904
3128.00,0.5894
3127.00,0.5885
3126.00,0.5876
3125.00,0.5869
3124.00,0.5863
3123.00,0.5858
3122.00,0.5854
3121.00,0.5849
3120.00,0.5843
3119.00,0.5836
3118.00,0.5829
3117.00,0.5821
3116.00,0.5813
3115.00,0.5804
3114.00,0.5796
3113.00,0.5787
3112.00,0.5778
3111.00,0.5770
3110.00,0.5764
3109.00,0.5759
3108.00,0.5752
3107.00,0.5743
3106.00,0.5735
3105.00,0.5727
3104.00,0.5719
3103.00,0.5713
3102.00,0.5708
3101.00,0.5703
3100.00,0.5698
3099.00,0.5692
3098.00,0.5684
3097.00,0.5676
3096.00,0.5668
3095.00,0.5660
3094.00,0.5655
3093.00,0.5650
3092.00,0.5647
3091.00,0.5644
3090.00,0.5641
3089.00,0.5637
3088.00,0.5632
3087.00,0.5626
3086.00,0.5621
3085.00,0.5616
3084.00,0.5611
3083.00,0.5607
3082.00,0.5602
3081.00,0.5598
3080.00,0.5593
3079.00,0.5589
3078.00,0.5583
3077.00,0.5578
3076.00,0.5571
3075.00,0.5564
3074.00,0.5558
3073.00,0.5552
3072.00,0.5547
3071.00,0.5543
3070.00,0.5540
3069.00,0.5539
3068.00,0.5538
3067.00,0.5535
3066.00,0.5531
3065.00,0.5526
3064.00,0.5520
3063.00,0.5515
3062.00,0.5510
3061.00,0.5506
3060.00,0.5502
3059.00,0.5499
3058.00,0.5498
3057.00,0.5496
3056.00,0.5495
3055.00,0.5493
3054.00,0.5490
3053.00,0.5488
3052.00,0.5486
3051.00,0.5485
3050.00,0.5483
3049.00,0.5482
3048.00,0.5479
3047.00,0.5477
3046.00,0.5476
3045.00,0.5474
3044.00,0.5473
3043.00,0.5472
3042.00,0.5471
3041.00,0.5470
3040.00,0.5467
3039.00,0.5464
3038.00,0.5463
3037.00,0.5463
3036.00,0.5464
3035.00,0.5466
3034.00,0.5469
3033.00,0.5471
3032.00,0.5473
3031.00,0.5474
3030.00,0.5475
3029.00,0.5475
3028.00,0.5475
3027.00,0.5477
3026.00,0.5481
3025.00,0.5486
3024.00,0.5491
3023.00,0.5496
3022.00,0.5502
3021.00,0.5509
3020.00,0.5517
3019.00,0.5526
3018.00,0.5535
3017.00,0.5545
3016.00,0.5556
3015.00,0.5568
3014.00,0.5581
3013.00,0.5593
3012.00,0.5605
3011.00,0.5617
3010.00,0.5630
3009.00,0.5642
3008.00,0.5655
3007.00,0.5668
3006.00,0.5684
3005.00,0.5700
3004.00,0.5717
3003.00,0.5734
3002.00,0.5750
3001.00,0.5767
3000.00,0.5785
2999.00,0.5803
2998.00,0.5820
2997.00,0.5837
2996.00,0.5851
2995.00,0.5866
2994.00,0.5880
2993.00,0.5894
2992.00,0.5906
2991.00,0.5917
2990.00,0.5926
2989.00,0.5933
2988.00,0.5940
2987.00,0.5945
2986.00,0.5951
2985.00,0.5956
2984.00,0.5962
2983.00,0.5968
2982.00,0.5974
2981.00,0.5978
2980.00,0.5980
2979.00,0.5980
2978.00,0.5979
2977.00,0.5979
2976.00,0.5978
2975.00,0.5978
2974.00,0.5978
2973.00,0.5977
2972.00,0.5975
2971.00,0.5973
2970.00,0.5972
2969.00,0.5971
2968.00,0.5971
2967.00,0.5971
2966.00,0.5973
2965.00,0.5975
2964.00,0.5978
2963.00,0.5981
2962.00,0.5983
2961.00,0.5985
2960.00,0.5987
2959.00,0.5989
2958.00,0.5993
2957.00,0.5998
2956.00,0.6002
2955.00,0.6008
2954.00,0.6015
2953.00,0.6022
2952.00,0.6028
2951.00,0.6033
2950.00,0.6039
2949.00,0.6045
2948.00,0.6051
2947.00,0.6058
2946.00,0.6064
2945.00,0.6070
2944.00,0.6073
2943.00,0.6076
2942.00,0.6078
2941.00,0.6079
2940.00,0.6079
2939.00,0.6079
2938.00,0.6078
2937.00,0.6077
2936.00,0.6075
2935.00,0.6073
2934.00,0.6071
2933.00,0.6069
2932.00,0.6067
2931.00,0.6066
2930.00,0.6064
2929.00,0.6060
2928.00,0.6055
2927.00,0.6050
2926.00,0.6045
2925.00,0.6040
2924.00,0.6036
2923.00,0.6032
2922.00,0.6028
2921.00,0.6025
2920.00,0.6023
2919.00,0.6021
2918.00,0.6019
2917.00,0.6017
2916.00,0.6012
2915.00,0.6006
2914.00,0.6000
2913.00,0.5994
2912.00,0.5988
2911.00,0.5983
2910.00,0.5977
2909.00,0.5971
2908.00,0.5965
2907.00,0.5959
2906.00,0.5955
2905.00,0.5950
2904.00,0.5944
2903.00,0.5938
2902.00,0.5931
2901.00,0.5925
2900.00,0.5919
2899.00,0.5913
2898.00,0.5907
2897.00,0.5900
2896.00,0.5893
2895.00,0.5884
2894.00,0.5875
2893.00,0.5866
2892.00,0.5856
2891.00,0.5847
2890.00,0.5840
2889.00,0.5831
2888.00,0.5823
2887.00,0.5815
2886.00,0.5807
2885.00,0.5799
2884.00,0.5791
2883.00,0.5781
2882.00,0.5772
2881.00,0.5762
2880.00,0.5753
2879.00,0.5743
2878.00,0.5732
2877.00,0.5721
2876.00,0.5710
2875.00,0.5699
2874.00,0.5688
2873.00,0.5676
2872.00,0.5661
2871.00,0.5645
2870.00,0.5629
2869.00,0.5613
2868.00,0.5597
2867.00,0.5583
2866.00,0.5568
2865.00,0.5554
2864.00,0.5539
2863.00,0.5526
2862.00,0.5515
2861.00,0.5505
2860.00,0.5495
2859.00,0.5486
2858.00,0.5476
2857.00,0.5468
2856.00,0.5461
2855.00,0.5456
2854.00,0.5454
2853.00,0.5452
2852.00,0.5452
2851.00,0.5454
2850.00,0.5457
2849.00,0.5460
2848.00,0.5464
2847.00,0.5467
2846.00,0.5470
2845.00,0.5472
2844.00,0.5474
2843.00,0.5478
2842.00,0.5482
2841.00,0.5485
2840.00,0.5487
2839.00,0.5486
2838.00,0.5482
2837.00,0.5475
2836.00,0.5466
2835.00,0.5454
2834.00,0.5440
2833.00,0.5425
2832.00,0.5408
2831.00,0.5390
2830.00,0.5372
2829.00,0.5354
2828.00,0.5337
2827.00,0.5321
2826.00,0.5305
2825.00,0.5290
2824.00,0.5275
2823.00,0.5260
2822.00,0.5246
2821.00,0.5231
2820.00,0.5216
2819.00,0.5201
2818.00,0.5185
2817.00,0.5167
2816.00,0.5148
2815.00,0.5127
2814.00,0.5105
2813.00,0.5082
2812.00,0.5056
2811.00,0.5029
2810.00,0.4999
2809.00,0.4967
2808.00,0.4934
2807.00,0.4900
2806.00,0.4867
2805.00,0.4835
2804.00,0.4804
2803.00,0.4775
2802.00,0.4749
2801.00,0.4726
2800.00,0.4705
2799.00,0.4687
2798.00,0.4670
2797.00,0.4655
2796.00,0.4642
2795.00,0.4629
2794.00,0.4618
2793.00,0.4608
2792.00,0.4599
2791.00,0.4590
2790.00,0.4582
2789.00,0.4574
2788.00,0.4566
2787.00,0.4559
2786.00,0.4552
2785.00,0.4544
2784.00,0.4538
2783.00,0.4532
2782.00,0.4526
2781.00,0.4520
2780.00,0.4515
2779.00,0.4509
2778.00,0.4504
2777.00,0.4500
2776.00,0.4495
2775.00,0.4490
2774.00,0.4485
2773.00,0.4481
2772.00,0.4476
2771.00,0.4472
2770.00,0.4468
2769.00,0.4464
2768.00,0.4460
2767.00,0.4457
2766.00,0.4453
2765.00,0.4450
2764.00,0.4447
2763.00,0.4444
2762.00,0.4441
2761.00,0.4438
2760.00,0.4434
2759.00,0.4432
2758.00,0.4429
2757.00,0.4426
2756.00,0.4423
2755.00,0.4420
2754.00,0.4417
2753.00,0.4414
2752.00,0.4411
2751.00,0.4409
2750.00,0.4407
2749.00,0.4404
2748.00,0.4400
2747.00,0.4396
2746.00,0.4392
2745.00,0.4389
2744.00,0.4385
2743.00,0.4381
2742.00,0.4378
2741.00,0.4374
2740.00,0.4371
2739.00,0.4367
2738.00,0.4363
2737.00,0.4360
2736.00,0.4356
2735.00,0.4353
2734.00,0.4349
2733.00,0.4346
2732.00,0.4342
2731.00,0.4340
2730.00,0.4337
2729.00,0.4334
2728.00,0.4330
2727.00,0.4327
2726.00,0.4324
2725.00,0.4321
2724.00,0.4317
2723.00,0.4313
2722.00,0.4309
2721.00,0.4306
2720.00,0.4302
2719.00,0.4298
2718.00,0.4295
2717.00,0.4292
2716.00,0.4288
2715.00,0.4285
2714.00,0.4281
2713.00,0.4278
2712.00,0.4274
2711.00,0.4271
2710.00,0.4267
2709.00,0.4264
2708.00,0.4260
2707.00,0.4256
2706.00,0.4253
2705.00,0.4249
2704.00,0.4246
2703.00,0.4242
2702.00,0.4239
2701.00,0.4237
2700.00,0.4234
2699.00,0.4232
2698.00,0.4230
2697.00,0.4227
2696.00,0.4224
2695.00,0.4221
2694.00,0.4218
2693.00,0.4215
2692.00,0.4212
2691.00,0.4209
2690.00,0.4207
2689.00,0.4204
2688.00,0.4202
2687.00,0.4200
2686.00,0.4198
2685.00,0.4196
2684.00,0.4194
2683.00,0.4192
2682.00,0.4190
2681.00,0.4188
2680.00,0.4186
2679.00,0.4184
2678.00,0.4182
2677.00,0.4180
2676.00,0.4177
2675.00,0.4175
2674.00,0.4173
2673.00,0.4171
2672.00,0.4168
2671.00,0.4166
2670.00,0.4163
2669.00,0.4161
2668.00,0.4159
2667.00,0.4157
2666.00,0.4155
2665.00,0.4152
2664.00,0.4150
2663.00,0.4148
2662.00,0.4146
2661.00,0.4144
2660.00,0.4142
2659.00,0.4140
2658.00,0.4137
2657.00,0.4135
2656.00,0.4133
2655.00,0.4130
2654.00,0.4128
2653.00,0.4125
2652.00,0.4123
2651.00,0.4120
2650.00,0.4118
2649.00,0.4115
2648.00,0.4112
2647.00,0.4110
2646.00,0.4108
2645.00,0.4105
2644.00,0.4102
2643.00,0.4100
2642.00,0.4098
2641.00,0.4095
2640.00,0.4093
2639.00,0.4090
2638.00,0.4088
2637.00,0.4085
2636.00,0.4083
2635.00,0.4080
2634.00,0.4078
2633.00,0.4075
2632.00,0.4072
2631.00,0.4070
2630.00,0.4067
2629.00,0.4065
2628.00,0.4063
2627.00,0.4061
2626.00,0.4059
2625.00,0.4057
2624.00,0.4055
2623.00,0.4053
2622.00,0.4051
2621.00,0.4049
2620.00,0.4046
2619.00,0.4044
2618.00,0.4041
2617.00,0.4040
2616.00,0.4038
2615.00,0.4036
2614.00,0.4034
2613.00,0.4032
2612.00,0.4031
2611.00,0.4030
2610.00,0.4029
2609.00,0.4027
2608.00,0.4025
2607.00,0.4023
2606.00,0.4021
2605.00,0.4020
2604.00,0.4018
2603.00,0.4016
2602.00,0.4014
2601.00,0.4013
2600.00,0.4011
2599.00,0.4009
2598.00,0.4008
2597.00,0.4006
2596.00,0.4003
2595.00,0.4001
2594.00,0.3999
2593.00,0.3996
2592.00,0.3993
2591.00,0.3990
2590.00,0.3987
2589.00,0.3984
2588.00,0.3980
2587.00,0.3977
2586.00,0.3974
2585.00,0.3971
2584.00,0.3967
2583.00,0.3963
2582.00,0.3960
2581.00,0.3956
2580.00,0.3952
2579.00,0.3949
2578.00,0.3945
2577.00,0.3942
2576.00,0.3939
2575.00,0.3936
2574.00,0.3933
2573.00,0.3931
2572.00,0.3928
2571.00,0.3925
2570.00,0.3923
2569.00,0.3920
2568.00,0.3918
2567.00,0.3915
2566.00,0.3913
2565.00,0.3911
2564.00,0.3909
2563.00,0.3907
2562.00,0.3904
2561.00,0.3902
2560.00,0.3899
2559.00,0.3897
2558.00,0.3894
2557.00,0.3892
2556.00,0.3889
2555.00,0.3887
2554.00,0.3886
2553.00,0.3885
2552.00,0.3882
2551.00,0.3880
2550.00,0.3878
2549.00,0.3876
2548.00,0.3874
2547.00,0.3872
2546.00,0.3870
2545.00,0.3868
2544.00,0.3866
2543.00,0.3863
2542.00,0.3861
2541.00,0.3859
2540.00,0.3857
2539.00,0.3856
2538.00,0.3855
2537.00,0.3853
2536.00,0.3852
2535.00,0.3850
2534.00,0.3847
2533.00,0.3845
2532.00,0.3842
2531.00,0.3840
2530.00,0.3838
2529.00,0.3836
2528.00,0.3834
2527.00,0.3832
2526.00,0.3830
2525.00,0.3828
2524.00,0.3826
2523.00,0.3823
2522.00,0.3821
2521.00,0.3819
2520.00,0.3817
2519.00,0.3815
2518.00,0.3813
2517.00,0.3811
2516.00,0.3809
2515.00,0.3807
2514.00,0.3805
2513.00,0.3804
2512.00,0.3802
2511.00,0.3800
2510.00,0.3798
2509.00,0.3796
2508.00,0.3794
2507.00,0.3792
2506.00,0.3790
2505.00,0.3789
2504.00,0.3787
2503.00,0.3785
2502.00,0.3784
2501.00,0.3782
2500.00,0.3779
2499.00,0.3777
2498.00,0.3775
2497.00,0.3773
2496.00,0.3772
2495.00,0.3770
2494.00,0.3769
2493.00,0.3767
2492.00,0.3765
2491.00,0.3762
2490.00,0.3760
2489.00,0.3758
2488.00,0.3757
2487.00,0.3755
2486.00,0.3754
2485.00,0.3752
2484.00,0.3750
2483.00,0.3749
2482.00,0.3747
2481.00,0.3745
2480.00,0.3743
2479.00,0.3742
2478.00,0.3740
2477.00,0.3738
2476.00,0.3736
2475.00,0.3734
2474.00,0.3732
2473.00,0.3730
2472.00,0.3728
2471.00,0.3727
2470.00,0.3725
2469.00,0.3723
2468.00,0.3722
2467.00,0.3720
2466.00,0.3719
2465.00,0.3717
2464.00,0.3715
2463.00,0.3714
2462.00,0.3712
2461.00,0.3711
2460.00,0.3709
2459.00,0.3707
2458.00,0.3705
2457.00,0.3703
2456.00,0.3701
2455.00,0.3700
2454.00,0.3698
2453.00,0.3697
2452.00,0.3695
2451.00,0.3693
2450.00,0.3691
2449.00,0.3689
2448.00,0.3687
2447.00,0.3686
2446.00,0.3685
2445.00,0.3683
2444.00,0.3682
2443.00,0.3680
2442.00,0.3677
2441.00,0.3676
2440.00,0.3674
2439.00,0.3672
2438.00,0.3671
2437.00,0.3670
2436.00,0.3669
2435.00,0.3667
2434.00,0.3666
2433.00,0.3664
2432.00,0.3663
2431.00,0.3662
2430.00,0.3661
2429.00,0.3661
2428.00,0.3659
2427.00,0.3658
2426.00,0.3656
2425.00,0.3653
2424.00,0.3651
2423.00,0.3649
2422.00,0.3647
2421.00,0.3646
2420.00,0.3644
2419.00,0.3643
2418.00,0.3642
2417.00,0.3640
2416.00,0.3639
2415.00,0.3638
2414.00,0.3637
2413.00,0.3636
2412.00,0.3634
2411.00,0.3632
2410.00,0.3631
2409.00,0.3630
2408.00,0.3628
2407.00,0.3627
2406.00,0.3625
2405.00,0.3624
2404.00,0.3623
2403.00,0.3622
2402.00,0.3621
2401.00,0.3619
2400.00,0.3618
2399.00,0.3616
2398.00,0.3615
2397.00,0.3613
2396.00,0.3611
2395.00,0.3610
2394.00,0.3608
2393.00,0.3605
2392.00,0.3603
2391.00,0.3601
2390.00,0.3599
2389.00,0.3597
2388.00,0.3595
2387.00,0.3593
2386.00,0.3591
2385.00,0.3589
2384.00,0.3587
2383.00,0.3586
2382.00,0.3584
2381.00,0.3583
2380.00,0.3582
2379.00,0.3580
2378.00,0.3578
2377.00,0.3576
2376.00,0.3573
2375.00,0.3572
2374.00,0.3571
2373.00,0.3571
2372.00,0.3570
2371.00,0.3569
2370.00,0.3568
2369.00,0.3566
2368.00,0.3563
2367.00,0.3560
2366.00,0.3557
2365.00,0.3555
2364.00,0.3553
2363.00,0.3552
2362.00,0.3552
2361.00,0.3551
2360.00,0.3551
2359.00,0.3551
2358.00,0.3551
2357.00,0.3549
2356.00,0.3547
2355.00,0.3544
2354.00,0.3542
2353.00,0.3540
2352.00,0.3539
2351.00,0.3537
2350.00,0.3536
2349.00,0.3535
2348.00,0.3534
2347.00,0.3532
2346.00,0.3531
2345.00,0.3529
2344.00,0.3528
2343.00,0.3527
2342.00,0.3527
2341.00,0.3527
2340.00,0.3526
2339.00,0.3525
2338.00,0.3522
2337.00,0.3519
2336.00,0.3515
2335.00,0.3513
2334.00,0.3512
2333.00,0.3512
2332.00,0.3511
2331.00,0.3510
2330.00,0.3509
2329.00,0.3508
2328.00,0.3506
2327.00,0.3505
2326.00,0.3503
2325.00,0.3502
2324.00,0.3500
2323.00,0.3499
2322.00,0.3498
2321.00,0.3497
2320.00,0.3496
2319.00,0.3495
2318.00,0.3494
2317.00,0.3492
2316.00,0.3491
2315.00,0.3489
2314.00,0.3487
2313.00,0.3486
2312.00,0.3485
2311.00,0.3485
2310.00,0.3484
2309.00,0.3484
2308.00,0.3482
2307.00,0.3481
2306.00,0.3480
2305.00,0.3478
2304.00,0.3477
2303.00,0.3476
2302.00,0.3475
2301.00,0.3473
2300.00,0.3472
2299.00,0.3470
2298.00,0.3468
2297.00,0.3467
2296.00,0.3466
2295.00,0.3465
2294.00,0.3464
2293.00,0.3463
2292.00,0.3462
2291.00,0.3461
2290.00,0.3460
2289.00,0.3458
2288.00,0.3456
2287.00,0.3454
2286.00,0.3453
2285.00,0.3452
2284.00,0.3451
2283.00,0.3450
2282.00,0.3449
2281.00,0.3448
2280.00,0.3447
2279.00,0.3447
2278.00,0.3445
2277.00,0.3444
2276.00,0.3443
2275.00,0.3442
2274.00,0.3442
2273.00,0.3441
2272.00,0.3440
2271.00,0.3439
2270.00,0.3437
2269.00,0.3436
2268.00,0.3436
2267.00,0.3435
2266.00,0.3435
2265.00,0.3434
2264.00,0.3433
2263.00,0.3432
2262.00,0.3431
2261.00,0.3430
2260.00,0.3429
2259.00,0.3429
2258.00,0.3428
2257.00,0.3428
2256.00,0.3427
2255.00,0.3426
2254.00,0.3425
2253.00,0.3424
2252.00,0.3424
2251.00,0.3424
2250.00,0.3423
2249.00,0.3423
2248.00,0.3422
2247.00,0.3422
2246.00,0.3421
2245.00,0.3420
2244.00,0.3419
2243.00,0.3419
2242.00,0.3418
2241.00,0.3418
2240.00,0.3417
2239.00,0.3416
2238.00,0.3415
2237.00,0.3414
2236.00,0.3414
2235.00,0.3413
2234.00,0.3412
2233.00,0.3412
2232.00,0.3411
2231.00,0.3410
2230.00,0.3409
2229.00,0.3408
2228.00,0.3408
2227.00,0.3407
2226.00,0.3406
2225.00,0.3405
2224.00,0.3404
2223.00,0.3403
2222.00,0.3402
2221.00,0.3402
2220.00,0.3402
2219.00,0.3401
2218.00,0.3400
2217.00,0.3399
2216.00,0.3398
2215.00,0.3397
2214.00,0.3396
2213.00,0.3396
2212.00,0.3395
2211.00,0.3394
2210.00,0.3394
2209.00,0.3393
2208.00,0.3392
2207.00,0.3392
2206.00,0.3391
2205.00,0.3391
2204.00,0.3390
2203.00,0.3390
2202.00,0.3390
2201.00,0.3389
2200.00,0.3389
2199.00,0.3388
2198.00,0.3388
2197.00,0.3388
2196.00,0.3387
2195.00,0.3386
2194.00,0.3385
2193.00,0.3385
2192.00,0.3384
2191.00,0.3384
2190.00,0.3384
2189.00,0.3383
2188.00,0.3383
2187.00,0.3383
2186.00,0.3382
2185.00,0.3382
2184.00,0.3382
2183.00,0.3382
2182.00,0.3381
2181.00,0.3381
2180.00,0.3381
2179.00,0.3381
2178.00,0.3381
2177.00,0.3381
2176.00,0.3380
2175.00,0.3380
2174.00,0.3380
2173.00,0.3380
2172.00,0.3380
2171.00,0.3380
2170.00,0.3380
2169.00,0.3380
2168.00,0.3381
2167.00,0.3382
2166.00,0.3382
2165.00,0.3382
2164.00,0.3382
2163.00,0.3382
2162.00,0.3381
2161.00,0.3381
2160.00,0.3381
2159.00,0.3381
2158.00,0.3381
2157.00,0.3381
2156.00,0.3381
2155.00,0.3381
2154.00,0.3381
2153.00,0.3381
2152.00,0.3381
2151.00,0.3382
2150.00,0.3382
2149.00,0.3382
2148.00,0.3382
2147.00,0.3382
2146.00,0.3383
2145.00,0.3383
2144.00,0.3383
2143.00,0.3383
2142.00,0.3383
2141.00,0.3383
2140.00,0.3383
2139.00,0.3383
2138.00,0.3383
2137.00,0.3383
2136.00,0.3382
2135.00,0.3382
2134.00,0.3382
2133.00,0.3381
2132.00,0.3380
2131.00,0.3379
2130.00,0.3378
2129.00,0.3377
2128.00,0.3376
2127.00,0.3375
2126.00,0.3374
2125.00,0.3373
2124.00,0.3372
2123.00,0.3372
2122.00,0.3371
2121.00,0.3370
2120.00,0.3368
2119.00,0.3367
2118.00,0.3366
2117.00,0.3364
2116.00,0.3363
2115.00,0.3361
2114.00,0.3360
2113.00,0.3359
2112.00,0.3357
2111.00,0.3356
2110.00,0.3355
2109.00,0.3353
2108.00,0.3351
2107.00,0.3350
2106.00,0.3349
2105.00,0.3347
2104.00,0.3346
2103.00,0.3345
2102.00,0.3343
2101.00,0.3342
2100.00,0.3341
2099.00,0.3340
2098.00,0.3338
2097.00,0.3337
2096.00,0.3335
2095.00,0.3334
2094.00,0.3333
2093.00,0.3332
2092.00,0.3331
2091.00,0.3330
2090.00,0.3329
2089.00,0.3328
2088.00,0.3327
2087.00,0.3325
2086.00,0.3324
2085.00,0.3322
2084.00,0.3321
2083.00,0.3320
2082.00,0.3319
2081.00,0.3317
2080.00,0.3316
2079.00,0.3315
2078.00,0.3313
2077.00,0.3312
2076.00,0.3310
2075.00,0.3308
2074.00,0.3306
2073.00,0.3304
2072.00,0.3303
2071.00,0.3301
2070.00,0.3300
2069.00,0.3298
2068.00,0.3296
2067.00,0.3294
2066.00,0.3293
2065.00,0.3292
2064.00,0.3291
2063.00,0.3289
2062.00,0.3288
2061.00,0.3286
2060.00,0.3285
2059.00,0.3282
2058.00,0.3280
2057.00,0.3278
2056.00,0.3276
2055.00,0.3274
2054.00,0.3273
2053.00,0.3271
2052.00,0.3269
2051.00,0.3267
2050.00,0.3264
2049.00,0.3262
2048.00,0.3260
2047.00,0.3258
2046.00,0.3256
2045.00,0.3253
2044.00,0.3250
2043.00,0.3248
2042.00,0.3245
2041.00,0.3242
2040.00,0.3239
2039.00,0.3236
2038.00,0.3233
2037.00,0.3231
2036.00,0.3228
2035.00,0.3225
2034.00,0.3222
2033.00,0.3219
2032.00,0.3216
2031.00,0.3213
2030.00,0.3210
2029.00,0.3206
2028.00,0.3202
2027.00,0.3199
2026.00,0.3196
2025.00,0.3193
2024.00,0.3190
2023.00,0.3186
2022.00,0.3183
2021.00,0.3179
2020.00,0.3175
2019.00,0.3171
2018.00,0.3167
2017.00,0.3162
2016.00,0.3157
2015.00,0.3153
2014.00,0.3149
2013.00,0.3144
2012.00,0.3139
2011.00,0.3135
2010.00,0.3130
2009.00,0.3126
2008.00,0.3121
2007.00,0.3116
2006.00,0.3111
2005.00,0.3106
2004.00,0.3101
2003.00,0.3096
2002.00,0.3092
2001.00,0.3087
2000.00,0.3082
1999.00,0.3078
1998.00,0.3074
1997.00,0.3069
1996.00,0.3065
1995.00,0.3061
1994.00,0.3057
1993.00,0.3053
1992.00,0.3048
1991.00,0.3044
1990.00,0.3040
1989.00,0.3037
1988.00,0.3033
1987.00,0.3030
1986.00,0.3026
1985.00,0.3023
1984.00,0.3020
1983.00,0.3016
1982.00,0.3013
1981.00,0.3009
1980.00,0.3006
1979.00,0.3003
1978.00,0.3000
1977.00,0.2997
1976.00,0.2994
1975.00,0.2991
1974.00,0.2988
1973.00,0.2986
1972.00,0.2983
1971.00,0.2980
1970.00,0.2977
1969.00,0.2974
1968.00,0.2972
1967.00,0.2968
1966.00,0.2965
1965.00,0.2962
1964.00,0.2959
1963.00,0.2957
1962.00,0.2954
1961.00,0.2951
1960.00,0.2948
1959.00,0.2946
1958.00,0.2943
1957.00,0.2940
1956.00,0.2938
1955.00,0.2935
1954.00,0.2933
1953.00,0.2930
1952.00,0.2928
1951.00,0.2925
1950.00,0.2923
1949.00,0.2920
1948.00,0.2918
1947.00,0.2916
1946.00,0.2913
1945.00,0.2911
1944.00,0.2909
1943.00,0.2908
1942.00,0.2906
1941.00,0.2903
1940.00,0.2901
1939.00,0.2899
1938.00,0.2897
1937.00,0.2895
1936.00,0.2893
1935.00,0.2891
1934.00,0.2890
1933.00,0.2888
1932.00,0.2886
1931.00,0.2884
1930.00,0.2882
1929.00,0.2880
1928.00,0.2878
1927.00,0.2877
1926.00,0.2875
1925.00,0.2873
1924.00,0.2872
1923.00,0.2870
1922.00,0.2868
1921.00,0.2866
1920.00,0.2865
1919.00,0.2864
1918.00,0.2862
1917.00,0.2860
1916.00,0.2859
1915.00,0.2858
1914.00,0.2857
1913.00,0.2856
1912.00,0.2855
1911.00,0.2854
1910.00,0.2852
1909.00,0.2850
1908.00,0.2848
1907.00,0.2847
1906.00,0.2846
1905.00,0.2844
1904.00,0.2843
1903.00,0.2842
1902.00,0.2841
1901.00,0.2840
1900.00,0.2839
1899.00,0.2837
1898.00,0.2836
1897.00,0.2834
1896.00,0.2833
1895.00,0.2831
1894.00,0.2830
1893.00,0.2829
1892.00,0.2828
1891.00,0.2827
1890.00,0.2825
1889.00,0.2823
1888.00,0.2821
1887.00,0.2821
1886.00,0.2820
1885.00,0.2819
1884.00,0.2818
1883.00,0.2817
1882.00,0.2816
1881.00,0.2815
1880.00,0.2814
1879.00,0.2813
1878.00,0.2812
1877.00,0.2812
1876.00,0.2811
1875.00,0.2811
1874.00,0.2810
1873.00,0.2808
1872.00,0.2808
1871.00,0.2807
1870.00,0.2806
1869.00,0.2804
1868.00,0.2803
1867.00,0.2802
1866.00,0.2802
1865.00,0.2802
1864.00,0.2802
1863.00,0.2802
1862.00,0.2801
1861.00,0.2800
1860.00,0.2799
1859.00,0.2799
1858.00,0.2798
1857.00,0.2797
1856.00,0.2797
1855.00,0.2797
1854.00,0.2797
1853.00,0.2796
1852.00,0.2795
1851.00,0.2795
1850.00,0.2795
1849.00,0.2794
1848.00,0.2794
1847.00,0.2793
1846.00,0.2792
1845.00,0.2791
1844.00,0.2790
1843.00,0.2789
1842.00,0.2789
1841.00,0.2789
1840.00,0.2790
1839.00,0.2790
1838.00,0.2790
1837.00,0.2789
1836.00,0.2789
1835.00,0.2790
1834.00,0.2790
1833.00,0.2789
1832.00,0.2789
1831.00,0.2789
1830.00,0.2787
1829.00,0.2786
1828.00,0.2787
1827.00,0.2787
1826.00,0.2787
1825.00,0.2787
1824.00,0.2788
1823.00,0.2789
1822.00,0.2790
1821.00,0.2790
1820.00,0.2791
1819.00,0.2791
1818.00,0.2791
1817.00,0.2790
1816.00,0.2790
1815.00,0.2790
1814.00,0.2790
1813.00,0.2789
1812.00,0.2789
1811.00,0.2789
1810.00,0.2789
1809.00,0.2788
1808.00,0.2789
1807.00,0.2789
1806.00,0.2789
1805.00,0.2789
1804.00,0.2790
1803.00,0.2791
1802.00,0.2791
1801.00,0.2790
1800.00,0.2790
1799.00,0.2791
1798.00,0.2791
1797.00,0.2792
1796.00,0.2793
1795.00,0.2794
1794.00,0.2794
1793.00,0.2794
1792.00,0.2795
1791.00,0.2796
1790.00,0.2797
1789.00,0.2797
1788.00,0.2798
1787.00,0.2800
1786.00,0.2801
1785.00,0.2801
1784.00,0.2802
1783.00,0.2802
1782.00,0.2803
1781.00,0.2802
1780.00,0.2803
1779.00,0.2804
1778.00,0.2805
1777.00,0.2805
1776.00,0.2806
1775.00,0.2808
1774.00,0.2808
1773.00,0.2808
1772.00,0.2808
1771.00,0.2808
1770.00,0.2808
1769.00,0.2808
1768.00,0.2810
1767.00,0.2811
1766.00,0.2811
1765.00,0.2811
1764.00,0.2811
1763.00,0.2812
1762.00,0.2813
1761.00,0.2812
1760.00,0.2813
1759.00,0.2814
1758.00,0.2815
1757.00,0.2816
1756.00,0.2818
1755.00,0.2820
1754.00,0.2821
1753.00,0.2822
1752.00,0.2824
1751.00,0.2826
1750.00,0.2828
1749.00,0.2829
1748.00,0.2832
1747.00,0.2835
1746.00,0.2838
1745.00,0.2840
1744.00,0.2843
1743.00,0.2846
1742.00,0.2847
1741.00,0.2847
1740.00,0.2850
1739.00,0.2854
1738.00,0.2857
1737.00,0.2858
1736.00,0.2860
1735.00,0.2864
1734.00,0.2868
1733.00,0.2871
1732.00,0.2875
1731.00,0.2879
1730.00,0.2881
1729.00,0.2884
1728.00,0.2888
1727.00,0.2892
1726.00,0.2894
1725.00,0.2897
1724.00,0.2902
1723.00,0.2907
1722.00,0.2911
1721.00,0.2913
1720.00,0.2916
1719.00,0.2921
1718.00,0.2927
1717.00,0.2932
1716.00,0.2939
1715.00,0.2946
1714.00,0.2951
1713.00,0.2955
1712.00,0.2961
1711.00,0.2968
1710.00,0.2974
1709.00,0.2980
1708.00,0.2987
1707.00,0.2995
1706.00,0.3003
1705.00,0.3011
1704.00,0.3020
1703.00,0.3028
1702.00,0.3035
1701.00,0.3045
1700.00,0.3063
1699.00,0.3079
1698.00,0.3085
1697.00,0.3091
1696.00,0.3107
1695.00,0.3127
1694.00,0.3139
1693.00,0.3147
1692.00,0.3156
1691.00,0.3169
1690.00,0.3184
1689.00,0.3200
1688.00,0.3215
1687.00,0.3228
1686.00,0.3239
1685.00,0.3254
1684.00,0.3286
1683.00,0.3316
1682.00,0.3329
1681.00,0.3341
1680.00,0.3358
1679.00,0.3376
1678.00,0.3391
1677.00,0.3404
1676.00,0.3424
1675.00,0.3452
1674.00,0.3475
1673.00,0.3489
1672.00,0.3502
1671.00,0.3520
1670.00,0.3545
1669.00,0.3573
1668.00,0.3599
1667.00,0.3618
1666.00,0.3631
1665.00,0.3643
1664.00,0.3660
1663.00,0.3685
1662.00,0.3711
1661.00,0.3732
1660.00,0.3750
1659.00,0.3767
1658.00,0.3782
1657.00,0.3795
1656.00,0.3809
1655.00,0.3824
1654.00,0.3851
1653.00,0.3897
1652.00,0.3935
1651.00,0.3949
1650.00,0.3955
1649.00,0.3963
1648.00,0.3987
1647.00,0.4042
1646.00,0.4106
1645.00,0.4151
1644.00,0.4189
1643.00,0.4231
1642.00,0.4276
1641.00,0.4321
1640.00,0.4360
1639.00,0.4387
1638.00,0.4395
1637.00,0.4374
1636.00,0.4302
1635.00,0.4206
1634.00,0.4139
1633.00,0.4099
1632.00,0.4070
1631.00,0.4046
1630.00,0.4026
1629.00,0.4011
1628.00,0.4008
1627.00,0.4014
1626.00,0.4024
1625.00,0.4040
1624.00,0.4072
1623.00,0.4124
1622.00,0.4175
1621.00,0.4209
1620.00,0.4234
1619.00,0.4252
1618.00,0.4251
1617.00,0.4206
1616.00,0.4125
1615.00,0.4046
1614.00,0.3977
1613.00,0.3906
1612.00,0.3831
1611.00,0.3752
1610.00,0.3673
1609.00,0.3595
1608.00,0.3525
1607.00,0.3465
1606.00,0.3416
1605.00,0.3372
1604.00,0.3331
1603.00,0.3292
1602.00,0.3256
1601.00,0.3223
1600.00,0.3194
1599.00,0.3168
1598.00,0.3146
1597.00,0.3124
1596.00,0.3102
1595.00,0.3081
1594.00,0.3062
1593.00,0.3046
1592.00,0.3029
1591.00,0.3015
1590.00,0.3001
1589.00,0.2989
1588.00,0.2977
1587.00,0.2966
1586.00,0.2956
1585.00,0.2946
1584.00,0.2937
1583.00,0.2928
1582.00,0.2920
1581.00,0.2913
1580.00,0.2906
1579.00,0.2900
1578.00,0.2895
1577.00,0.2890
1576.00,0.2881
1575.00,0.2873
1574.00,0.2870
1573.00,0.2868
1572.00,0.2865
1571.00,0.2862
1570.00,0.2858
1569.00,0.2855
1568.00,0.2852
1567.00,0.2850
1566.00,0.2848
1565.00,0.2846
1564.00,0.2843
1563.00,0.2841
1562.00,0.2840
1561.00,0.2840
1560.00,0.2840
1559.00,0.2836
1558.00,0.2832
1557.00,0.2833
1556.00,0.2833
1555.00,0.2833
1554.00,0.2833
1553.00,0.2834
1552.00,0.2834
1551.00,0.2834
1550.00,0.2834
1549.00,0.2834
1548.00,0.2833
1547.00,0.2832
1546.00,0.2833
1545.00,0.2834
1544.00,0.2835
1543.00,0.2834
1542.00,0.2835
1541.00,0.2837
1540.00,0.2837
1539.00,0.2836
1538.00,0.2838
1537.00,0.2839
1536.00,0.2839
1535.00,0.2839
1534.00,0.2841
1533.00,0.2845
1532.00,0.2848
1531.00,0.2850
1530.00,0.2851
1529.00,0.2853
1528.00,0.2855
1527.00,0.2856
1526.00,0.2859
1525.00,0.2862
1524.00,0.2864
1523.00,0.2865
1522.00,0.2869
1521.00,0.2878
1520.00,0.2885
1519.00,0.2888
1518.00,0.2892
1517.00,0.2899
1516.00,0.2907
1515.00,0.2912
1514.00,0.2915
1513.00,0.2920
1512.00,0.2925
1511.00,0.2929
1510.00,0.2933
1509.00,0.2937
1508.00,0.2946
1507.00,0.2959
1506.00,0.2970
1505.00,0.2978
1504.00,0.2983
1503.00,0.2988
1502.00,0.2994
1501.00,0.3002
1500.00,0.3011
1499.00,0.3021
1498.00,0.3032
1497.00,0.3047
1496.00,0.3063
1495.00,0.3076
1494.00,0.3087
1493.00,0.3096
1492.00,0.3107
1491.00,0.3122
1490.00,0.3147
1489.00,0.3178
1488.00,0.3206
1487.00,0.3229
1486.00,0.3251
1485.00,0.3272
1484.00,0.3292
1483.00,0.3313
1482.00,0.3338
1481.00,0.3366
1480.00,0.3390
1479.00,0.3407
1478.00,0.3422
1477.00,0.3438
1476.00,0.3453
1475.00,0.3466
1474.00,0.3478
1473.00,0.3492
1472.00,0.3504
1471.00,0.3510
1470.00,0.3514
1469.00,0.3517
1468.00,0.3518
1467.00,0.3519
1466.00,0.3521
1465.00,0.3524
1464.00,0.3527
1463.00,0.3527
1462.00,0.3525
1461.00,0.3523
1460.00,0.3519
1459.00,0.3514
1458.00,0.3509
1457.00,0.3501
1456.00,0.3490
1455.00,0.3480
1454.00,0.3473
1453.00,0.3464
1452.00,0.3452
1451.00,0.3439
1450.00,0.3426
1449.00,0.3410
1448.00,0.3390
1447.00,0.3369
1446.00,0.3351
1445.00,0.3335
1444.00,0.3317
1443.00,0.3300
1442.00,0.3283
1441.00,0.3268
1440.00,0.3255
1439.00,0.3244
1438.00,0.3237
1437.00,0.3232
1436.00,0.3229
1435.00,0.3231
1434.00,0.3234
1433.00,0.3239
1432.00,0.3245
1431.00,0.3253
1430.00,0.3266
1429.00,0.3279
1428.00,0.3290
1427.00,0.3298
1426.00,0.3305
1425.00,0.3313
1424.00,0.3322
1423.00,0.3329
1422.00,0.3334
1421.00,0.3338
1420.00,0.3341
1419.00,0.3344
1418.00,0.3347
1417.00,0.3348
1416.00,0.3347
1415.00,0.3345
1414.00,0.3343
1413.00,0.3341
1412.00,0.3338
1411.00,0.3335
1410.00,0.3332
1409.00,0.3328
1408.00,0.3324
1407.00,0.3320
1406.00,0.3317
1405.00,0.3315
1404.00,0.3312
1403.00,0.3310
1402.00,0.3309
1401.00,0.3310
1400.00,0.3312
1399.00,0.3317
1398.00,0.3324
1397.00,0.3332
1396.00,0.3340
1395.00,0.3355
1394.00,0.3373
1393.00,0.3390
1392.00,0.3407
1391.00,0.3426
1390.00,0.3449
1389.00,0.3484
1388.00,0.3544
1387.00,0.3633
1386.00,0.3722
1385.00,0.3775
1384.00,0.3785
1383.00,0.3757
1382.00,0.3705
1381.00,0.3648
1380.00,0.3602
1379.00,0.3570
1378.00,0.3549
1377.00,0.3532
1376.00,0.3516
1375.00,0.3496
1374.00,0.3472
1373.00,0.3449
1372.00,0.3429
1371.00,0.3410
1370.00,0.3388
1369.00,0.3364
1368.00,0.3338
1367.00,0.3314
1366.00,0.3294
1365.00,0.3277
1364.00,0.3259
1363.00,0.3240
1362.00,0.3223
1361.00,0.3212
1360.00,0.3206
1359.00,0.3201
1358.00,0.3199
1357.00,0.3199
1356.00,0.3202
1355.00,0.3206
1354.00,0.3212
1353.00,0.3219
1352.00,0.3225
1351.00,0.3232
1350.00,0.3239
1349.00,0.3247
1348.00,0.3255
1347.00,0.3262
1346.00,0.3269
1345.00,0.3275
1344.00,0.3281
1343.00,0.3285
1342.00,0.3290
1341.00,0.3294
1340.00,0.3297
1339.00,0.3298
1338.00,0.3298
1337.00,0.3298
1336.00,0.3296
1335.00,0.3294
1334.00,0.3291
1333.00,0.3289
1332.00,0.3287
1331.00,0.3287
1330.00,0.3287
1329.00,0.3289
1328.00,0.3292
1327.00,0.3294
1326.00,0.3299
1325.00,0.3304
1324.00,0.3310
1323.00,0.3314
1322.00,0.3319
1321.00,0.3322
1320.00,0.3325
1319.00,0.3327
1318.00,0.3327
1317.00,0.3325
1316.00,0.3321
1315.00,0.3314
1314.00,0.3306
1313.00,0.3297
1312.00,0.3285
1311.00,0.3272
1310.00,0.3259
1309.00,0.3245
1308.00,0.3231
1307.00,0.3218
1306.00,0.3206
1305.00,0.3195
1304.00,0.3184
1303.00,0.3175
1302.00,0.3168
1301.00,0.3163
1300.00,0.3159
1299.00,0.3157
1298.00,0.3157
1297.00,0.3159
1296.00,0.3162
1295.00,0.3165
1294.00,0.3169
1293.00,0.3172
1292.00,0.3175
1291.00,0.3176
1290.00,0.3177
1289.00,0.3178
1288.00,0.3177
1287.00,0.3174
1286.00,0.3170
1285.00,0.3167
1284.00,0.3165
1283.00,0.3163
1282.00,0.3163
1281.00,0.3163
1280.00,0.3164
1279.00,0.3166
1278.00,0.3171
1277.00,0.3178
1276.00,0.3185
1275.00,0.3193
1274.00,0.3201
1273.00,0.3209
1272.00,0.3218
1271.00,0.3225
1270.00,0.3232
1269.00,0.3236
1268.00,0.3239
1267.00,0.3242
1266.00,0.3243
1265.00,0.3245
1264.00,0.3244
1263.00,0.3244
1262.00,0.3244
1261.00,0.3245
1260.00,0.3248
1259.00,0.3251
1258.00,0.3255
1257.00,0.3259
1256.00,0.3263
1255.00,0.3269
1254.00,0.3275
1253.00,0.3282
1252.00,0.3290
1251.00,0.3298
1250.00,0.3307
1249.00,0.3316
1248.00,0.3325
1247.00,0.3334
1246.00,0.3343
1245.00,0.3352
1244.00,0.3360
1243.00,0.3369
1242.00,0.3378
1241.00,0.3386
1240.00,0.3395
1239.00,0.3404
1238.00,0.3414
1237.00,0.3424
1236.00,0.3433
1235.00,0.3443
1234.00,0.3454
1233.00,0.3466
1232.00,0.3478
1231.00,0.3491
1230.00,0.3504
1229.00,0.3518
1228.00,0.3534
1227.00,0.3550
1226.00,0.3567
1225.00,0.3584
1224.00,0.3601
1223.00,0.3617
1222.00,0.3633
1221.00,0.3649
1220.00,0.3664
1219.00,0.3676
1218.00,0.3686
1217.00,0.3695
1216.00,0.3702
1215.00,0.3708
1214.00,0.3712
1213.00,0.3717
1212.00,0.3722
1211.00,0.3727
1210.00,0.3733
1209.00,0.3739
1208.00,0.3745
1207.00,0.3750
1206.00,0.3755
1205.00,0.3762
1204.00,0.3768
1203.00,0.3773
1202.00,0.3776
1201.00,0.3779
1200.00,0.3782
1199.00,0.3784
1198.00,0.3786
1197.00,0.3789
1196.00,0.3792
1195.00,0.3795
1194.00,0.3799
1193.00,0.3804
1192.00,0.3809
1191.00,0.3814
1190.00,0.3819
1189.00,0.3825
1188.00,0.3832
1187.00,0.3840
1186.00,0.3848
1185.00,0.3857
1184.00,0.3866
1183.00,0.3876
1182.00,0.3887
1181.00,0.3900
1180.00,0.3914
1179.00,0.3926
1178.00,0.3937
1177.00,0.3949
1176.00,0.3961
1175.00,0.3972
1174.00,0.3983
1173.00,0.3993
1172.00,0.4002
1171.00,0.4010
1170.00,0.4018
1169.00,0.4026
1168.00,0.4033
1167.00,0.4038
1166.00,0.4042
1165.00,0.4046
1164.00,0.4048
1163.00,0.4049
1162.00,0.4048
1161.00,0.4046
1160.00,0.4044
1159.00,0.4040
1158.00,0.4036
1157.00,0.4032
1156.00,0.4027
1155.00,0.4021
1154.00,0.4015
1153.00,0.4010
1152.00,0.4005
1151.00,0.4001
1150.00,0.3997
1149.00,0.3994
1148.00,0.3992
1147.00,0.3991
1146.00,0.3989
1145.00,0.3988
1144.00,0.3988
1143.00,0.3989
1142.00,0.3990
1141.00,0.3992
1140.00,0.3995
1139.00,0.4000
1138.00,0.4005
1137.00,0.4011
1136.00,0.4017
1135.00,0.4023
1134.00,0.4028
1133.00,0.4032
1132.00,0.4037
1131.00,0.4042
1130.00,0.4046
1129.00,0.4050
1128.00,0.4053
1127.00,0.4056
1126.00,0.4058
1125.00,0.4061
1124.00,0.4062
1123.00,0.4063
1122.00,0.4062
1121.00,0.4062
1120.00,0.4063
1119.00,0.4064
1118.00,0.4064
1117.00,0.4063
1116.00,0.4061
1115.00,0.4059
1114.00,0.4056
1113.00,0.4052
1112.00,0.4047
1111.00,0.4041
1110.00,0.4035
1109.00,0.4030
1108.00,0.4026
1107.00,0.4022
1106.00,0.4018
1105.00,0.4012
1104.00,0.4006
1103.00,0.4001
1102.00,0.3997
1101.00,0.3993
1100.00,0.3989
1099.00,0.3985
1098.00,0.3982
1097.00,0.3981
1096.00,0.3981
1095.00,0.3980
1094.00,0.3980
1093.00,0.3980
1092.00,0.3982
1091.00,0.3985
1090.00,0.3988
1089.00,0.3992
1088.00,0.3995
1087.00,0.3999
1086.00,0.4003
1085.00,0.4009
1084.00,0.4015
1083.00,0.4019
1082.00,0.4021
1081.00,0.4025
1080.00,0.4029
1079.00,0.4034
1078.00,0.4038
1077.00,0.4041
1076.00,0.4043
1075.00,0.4045
1074.00,0.4047
1073.00,0.4049
1072.00,0.4052
1071.00,0.4053
1070.00,0.4054
1069.00,0.4056
1068.00,0.4059
1067.00,0.4063
1066.00,0.4066
1065.00,0.4068
1064.00,0.4071
1063.00,0.4074
1062.00,0.4077
1061.00,0.4079
1060.00,0.4080
1059.00,0.4080
1058.00,0.4078
1057.00,0.4077
1056.00,0.4075
1055.00,0.4074
1054.00,0.4072
1053.00,0.4069
1052.00,0.4067
1051.00,0.4065
1050.00,0.4062
1049.00,0.4060
1048.00,0.4057
1047.00,0.4054
1046.00,0.4050
1045.00,0.4047
1044.00,0.4044
1043.00,0.4042
1042.00,0.4039
1041.00,0.4038
1040.00,0.4038
1039.00,0.4037
1038.00,0.4036
1037.00,0.4035
1036.00,0.4034
1035.00,0.4031
1034.00,0.4029
1033.00,0.4025
1032.00,0.4020
1031.00,0.4014
1030.00,0.4009
1029.00,0.4003
1028.00,0.3998
1027.00,0.3992
1026.00,0.3985
1025.00,0.3979
1024.00,0.3973
1023.00,0.3968
1022.00,0.3962
1021.00,0.3957
1020.00,0.3951
1019.00,0.3946
1018.00,0.3940
1017.00,0.3934
1016.00,0.3929
1015.00,0.3923
1014.00,0.3917
1013.00,0.3912
1012.00,0.3906
1011.00,0.3899
1010.00,0.3891
1009.00,0.3882
1008.00,0.3872
1007.00,0.3862
1006.00,0.3852
1005.00,0.3841
1004.00,0.3827
1003.00,0.3812
1002.00,0.3795
1001.00,0.3778
1000.00,0.3761
999.00,0.3741
998.00,0.3720
997.00,0.3697
996.00,0.3673
995.00,0.3648
994.00,0.3623
993.00,0.3597
992.00,0.3569
991.00,0.3539
990.00,0.3508
989.00,0.3476
988.00,0.3444
987.00,0.3410
986.00,0.3375
985.00,0.3337
984.00,0.3298
983.00,0.3258
982.00,0.3219
981.00,0.3179
980.00,0.3139
979.00,0.3099
978.00,0.3062
977.00,0.3027
976.00,0.2993
975.00,0.2961
974.00,0.2930
973.00,0.2901
972.00,0.2875
971.00,0.2854
970.00,0.2836
969.00,0.2822
968.00,0.2810
967.00,0.2803
966.00,0.2801
965.00,0.2805
964.00,0.2812
963.00,0.2824
962.00,0.2838
961.00,0.2856
960.00,0.2875
959.00,0.2897
958.00,0.2919
957.00,0.2942
956.00,0.2964
955.00,0.2985
954.00,0.3007
953.00,0.3029
952.00,0.3049
951.00,0.3067
950.00,0.3084
949.00,0.3100
948.00,0.3116
947.00,0.3129
946.00,0.3141
945.00,0.3148
944.00,0.3152
943.00,0.3151
942.00,0.3147
941.00,0.3138
940.00,0.3123
939.00,0.3102
938.00,0.3079
937.00,0.3053
936.00,0.3028
935.00,0.3003
934.00,0.2980
933.00,0.2959
932.00,0.2940
931.00,0.2923
930.00,0.2908
929.00,0.2894
928.00,0.2880
927.00,0.2865
926.00,0.2850
925.00,0.2835
924.00,0.2818
923.00,0.2801
922.00,0.2782
921.00,0.2763
920.00,0.2742
919.00,0.2721
918.00,0.2700
917.00,0.2681
916.00,0.2661
915.00,0.2643
914.00,0.2626
913.00,0.2610
912.00,0.2594
911.00,0.2580
910.00,0.2565
909.00,0.2551
908.00,0.2536
907.00,0.2521
906.00,0.2506
905.00,0.2491
904.00,0.2474
903.00,0.2457
902.00,0.2440
901.00,0.2424
900.00,0.2410
899.00,0.2397
898.00,0.2386
897.00,0.2377
896.00,0.2369
895.00,0.2362
894.00,0.2357
893.00,0.2352
892.00,0.2346
891.00,0.2338
890.00,0.2329
889.00,0.2317
888.00,0.2303
887.00,0.2286
886.00,0.2267
885.00,0.2244
884.00,0.2216
883.00,0.2186
882.00,0.2155
881.00,0.2123
880.00,0.2091
879.00,0.2060
878.00,0.2032
877.00,0.2005
876.00,0.1981
875.00,0.1959
874.00,0.1940
873.00,0.1922
872.00,0.1902
871.00,0.1882
870.00,0.1865
869.00,0.1850
868.00,0.1837
867.00,0.1826
866.00,0.1817
865.00,0.1810
864.00,0.1804
863.00,0.1801
862.00,0.1800
861.00,0.1800
860.00,0.1800
859.00,0.1801
858.00,0.1805
857.00,0.1810
856.00,0.1813
855.00,0.1816
854.00,0.1819
853.00,0.1820
852.00,0.1820
851.00,0.1819
850.00,0.1818
849.00,0.1814
848.00,0.1809
847.00,0.1803
846.00,0.1799
845.00,0.1795
844.00,0.1791
843.00,0.1786
842.00,0.1783
841.00,0.1780
840.00,0.1777
839.00,0.1773
838.00,0.1768
837.00,0.1761
836.00,0.1752
835.00,0.1744
834.00,0.1736
833.00,0.1730
832.00,0.1722
831.00,0.1715
830.00,0.1711
829.00,0.1708
828.00,0.1706
827.00,0.1706
826.00,0.1707
825.00,0.1708
824.00,0.1709
823.00,0.1711
822.00,0.1715
821.00,0.1717
820.00,0.1718
819.00,0.1718
818.00,0.1718
817.00,0.1719
816.00,0.1718
815.00,0.1717
814.00,0.1717
813.00,0.1717
812.00,0.1716
811.00,0.1715
810.00,0.1716
809.00,0.1717
808.00,0.1716
807.00,0.1717
806.00,0.1718
805.00,0.1720
804.00,0.1722
803.00,0.1722
802.00,0.1724
801.00,0.1725
800.00,0.1725
799.00,0.1726
798.00,0.1728
797.00,0.1730
796.00,0.1730
795.00,0.1732
794.00,0.1735
793.00,0.1738
792.00,0.1740
791.00,0.1743
790.00,0.1746
789.00,0.1750
788.00,0.1753
787.00,0.1756
786.00,0.1761
785.00,0.1766
784.00,0.1769
783.00,0.1773
782.00,0.1777
781.00,0.1781
780.00,0.1785
779.00,0.1788
778.00,0.1791
777.00,0.1795
776.00,0.1797
775.00,0.1799
774.00,0.1803
773.00,0.1809
772.00,0.1814
771.00,0.1818
770.00,0.1823
769.00,0.1827
768.00,0.1831
767.00,0.1834
766.00,0.1839
765.00,0.1844
764.00,0.1848
763.00,0.1852
762.00,0.1857
761.00,0.1862
760.00,0.1866
759.00,0.1870
758.00,0.1874
757.00,0.1880
756.00,0.1886
755.00,0.1892
754.00,0.1898
753.00,0.1904
752.00,0.1909
751.00,0.1914
750.00,0.1921
749.00,0.1927
748.00,0.1933
747.00,0.1938
746.00,0.1944
745.00,0.1951
744.00,0.1958
743.00,0.1964
742.00,0.1969
741.00,0.1975
740.00,0.1980
739.00,0.1986
738.00,0.1995
737.00,0.2003
736.00,0.2009
735.00,0.2014
734.00,0.2021
733.00,0.2028
732.00,0.2036
731.00,0.2044
730.00,0.2053
729.00,0.2062
728.00,0.2070
727.00,0.2078
726.00,0.2088
725.00,0.2098
724.00,0.2107
723.00,0.2116
722.00,0.2127
721.00,0.2139
720.00,0.2152
719.00,0.2163
718.00,0.2174
717.00,0.2184
716.00,0.2195
715.00,0.2207
714.00,0.2220
713.00,0.2231
712.00,0.2240
711.00,0.2248
710.00,0.2256
709.00,0.2264
708.00,0.2271
707.00,0.2277
706.00,0.2284
705.00,0.2291
704.00,0.2298
703.00,0.2304
702.00,0.2311
701.00,0.2317
700.00,0.2322
699.00,0.2327
698.00,0.2334
697.00,0.2341
696.00,0.2348
695.00,0.2353
694.00,0.2360
693.00,0.2367
692.00,0.2375
691.00,0.2385
690.00,0.2395
689.00,0.2407
688.00,0.2418
687.00,0.2430
686.00,0.2446
685.00,0.2462
684.00,0.2480
683.00,0.2498
682.00,0.2518
681.00,0.2541
680.00,0.2565
679.00,0.2591
678.00,0.2617
677.00,0.2644
676.00,0.2670
675.00,0.2694
674.00,0.2716
673.00,0.2735
672.00,0.2750
671.00,0.2763
670.00,0.2776
669.00,0.2793
668.00,0.2815
667.00,0.2832
666.00,0.2844
665.00,0.2854
664.00,0.2863
663.00,0.2873
662.00,0.2883
661.00,0.2894
660.00,0.2905
659.00,0.2917
658.00,0.2929
657.00,0.2941
656.00,0.2952
655.00,0.2961
654.00,0.2970
653.00,0.2980
652.00,0.2990
651.00,0.3000
650.00,0.3011
649.00,0.3022
648.00,0.3033
647.00,0.3045
646.00,0.3056
645.00,0.3069
644.00,0.3080
643.00,0.3091
642.00,0.3103
641.00,0.3117
640.00,0.3133
639.00,0.3150
638.00,0.3167
637.00,0.3184
636.00,0.3202
635.00,0.3221
634.00,0.3241
633.00,0.3259
632.00,0.3277
631.00,0.3293
630.00,0.3309
629.00,0.3326
628.00,0.3344
627.00,0.3360
626.00,0.3374
625.00,0.3388
624.00,0.3402
623.00,0.3415
622.00,0.3427
621.00,0.3438
620.00,0.3448
619.00,0.3457
618.00,0.3465
617.00,0.3471
616.00,0.3475
615.00,0.3476
614.00,0.3476
613.00,0.3476
612.00,0.3476
611.00,0.3475
610.00,0.3471
609.00,0.3466
608.00,0.3460
607.00,0.3456
606.00,0.3452
605.00,0.3449
604.00,0.3448
603.00,0.3449
602.00,0.3448
601.00,0.3441
600.00,0.3428
599.00,0.3411
598.00,0.3395
597.00,0.3384
596.00,0.3376
595.00,0.3370
594.00,0.3363
593.00,0.3355
592.00,0.3344
591.00,0.3333
590.00,0.3324
589.00,0.3318
588.00,0.3312
587.00,0.3304
586.00,0.3294
585.00,0.3284
584.00,0.3274
583.00,0.3266
582.00,0.3260
581.00,0.3254
580.00,0.3248
579.00,0.3241
578.00,0.3236
577.00,0.3230
576.00,0.3224
575.00,0.3217
574.00,0.3210
573.00,0.3205
572.00,0.3202
571.00,0.3199
570.00,0.3195
569.00,0.3189
568.00,0.3182
567.00,0.3176
566.00,0.3173
565.00,0.3171
564.00,0.3169
563.00,0.3166
562.00,0.3161
561.00,0.3155
560.00,0.3149
559.00,0.3143
558.00,0.3137
557.00,0.3132
556.00,0.3126
555.00,0.3123
554.00,0.3121
553.00,0.3120
552.00,0.3118
551.00,0.3115
550.00,0.3114
549.00,0.3114
548.00,0.3114
547.00,0.3114
546.00,0.3113
545.00,0.3112
544.00,0.3110
543.00,0.3111
542.00,0.3115
541.00,0.3119
540.00,0.3123
539.00,0.3124
538.00,0.3124
537.00,0.3124
536.00,0.3125
535.00,0.3126
534.00,0.3129
533.00,0.3131
532.00,0.3133
531.00,0.3135
530.00,0.3139
529.00,0.3144
528.00,0.3148
527.00,0.3152
526.00,0.3159
525.00,0.3165
524.00,0.3168
523.00,0.3168
522.00,0.3167
521.00,0.3168
520.00,0.3169
519.00,0.3173
518.00,0.3179
517.00,0.3185
516.00,0.3189
515.00,0.3192
514.00,0.3196
513.00,0.3202
512.00,0.3208
511.00,0.3215
510.00,0.3223
509.00,0.3231
508.00,0.3237
507.00,0.3242
506.00,0.3247
505.00,0.3252
504.00,0.3258
503.00,0.3266
502.00,0.3278
501.00,0.3289
500.00,0.3296
499.00,0.3300
498.00,0.3304
497.00,0.3311
496.00,0.3318
495.00,0.3327
494.00,0.3336
493.00,0.3348
492.00,0.3362
491.00,0.3377
490.00,0.3391
489.00,0.3403
488.00,0.3413
487.00,0.3422
486.00,0.3431
485.00,0.3440
484.00,0.3451
483.00,0.3462
482.00,0.3470
481.00,0.3474
480.00,0.3474
479.00,0.3474
478.00,0.3477
477.00,0.3482
476.00,0.3485
475.00,0.3488
474.00,0.3489
473.00,0.3488
472.00,0.3483
471.00,0.3477
470.00,0.3470
469.00,0.3462
468.00,0.3452
467.00,0.3440
466.00,0.3431
465.00,0.3422
464.00,0.3413
463.00,0.3403
462.00,0.3393
461.00,0.3384
460.00,0.3372
459.00,0.3361
458.00,0.3350
457.00,0.3341
456.00,0.3332
455.00,0.3326
454.00,0.3322
453.00,0.3315
452.00,0.3302
451.00,0.3289
450.00,0.3282
449.00,0.3278
448.00,0.3273
447.00,0.3265
446.00,0.3259
445.00,0.3256
444.00,0.3254
443.00,0.3251
442.00,0.3248
441.00,0.3243
440.00,0.3234
439.00,0.3226
438.00,0.3224
437.00,0.3229
436.00,0.3237
435.00,0.3244
434.00,0.3247
433.00,0.3246
432.00,0.3243
431.00,0.3245
430.00,0.3249
429.00,0.3252
428.00,0.3252
427.00,0.3253
426.00,0.3257
425.00,0.3256
424.00,0.3244
423.00,0.3228
422.00,0.3219
421.00,0.3217
420.00,0.3215
419.00,0.3222
418.00,0.3240
417.00,0.3249
416.00,0.3250
415.00,0.3258
414.00,0.3278
413.00,0.3299
412.00,0.3309
411.00,0.3309
410.00,0.3312
409.00,0.3322
408.00,0.3333
407.00,0.3346
406.00,0.3358
405.00,0.3364
404.00,0.3363
403.00,0.3362
402.00,0.3371
401.00,0.3385
400.00,0.3394
