wavelength,value
4000.00,0.8615
3999.00,0.8614
3998.00,0.8612
3997.00,0.8609
3996.00,0.8605
3995.00,0.8602
3994.00,0.8600
3993.00,0.8597
3992.00,0.8593
3991.00,0.8588
3990.00,0.8583
3989.00,0.8581
3988.00,0.8580
3987.00,0.8581
3986.00,0.8584
3985.00,0.8586
3984.00,0.8585
3983.00,0.8581
3982.00,0.8575
3981.00,0.8569
3980.00,0.8564
3979.00,0.8561
3978.00,0.8560
3977.00,0.8559
3976.00,0.8557
3975.00,0.8556
3974.00,0.8553
3973.00,0.8549
3972.00,0.8543
3971.00,0.8537
3970.00,0.8533
3969.00,0.8530
3968.00,0.8527
3967.00,0.8524
3966.00,0.8522
3965.00,0.8520
3964.00,0.8516
3963.00,0.8511
3962.00,0.8506
3961.00,0.8502
3960.00,0.8500
3959.00,0.8498
3958.00,0.8498
3957.00,0.8497
3956.00,0.8495
3955.00,0.8493
3954.00,0.8490
3953.00,0.8487
3952.00,0.8484
3951.00,0.8481
3950.00,0.8479
3949.00,0.8478
3948.00,0.8478
3947.00,0.8478
3946.00,0.8477
3945.00,0.8474
3944.00,0.8471
3943.00,0.8467
3942.00,0.8462
3941.00,0.8458
3940.00,0.8452
3939.00,0.8449
3938.00,0.8449
3937.00,0.8450
3936.00,0.8451
3935.00,0.8451
3934.00,0.8450
3933.00,0.8445
3932.00,0.8438
3931.00,0.8430
3930.00,0.8425
3929.00,0.8421
3928.00,0.8419
3927.00,0.8417
3926.00,0.8416
3925.00,0.8413
3924.00,0.8411
3923.00,0.8408
3922.00,0.8406
3921.00,0.8402
3920.00,0.8400
3919.00,0.8397
3918.00,0.8394
3917.00,0.8389
3916.00,0.8384
3915.00,0.8380
3914.00,0.8376
3913.00,0.8372
3912.00,0.8366
3911.00,0.8362
3910.00,0.8359
3909.00,0.8358
3908.00,0.8357
3907.00,0.8357
3906.00,0.8357
3905.00,0.8353
3904.00,0.8346
3903.00,0.8341
3902.00,0.8341
3901.00,0.8339
3900.00,0.8337
3899.00,0.8335
3898.00,0.8334
3897.00,0.8331
3896.00,0.8327
3895.00,0.8326
3894.00,0.8327
3893.00,0.8327
3892.00,0.8324
3891.00,0.8320
3890.00,0.8317
3889.00,0.8312
3888.00,0.8308
3887.00,0.8309
3886.00,0.8315
3885.00,0.8320
3884.00,0.8318
3883.00,0.8306
3882.00,0.8293
3881.00,0.8282
3880.00,0.8277
3879.00,0.8275
3878.00,0.8272
3877.00,0.8268
3876.00,0.8264
3875.00,0.8259
3874.00,0.8257
3873.00,0.8257
3872.00,0.8255
3871.00,0.8249
3870.00,0.8241
3869.00,0.8239
3868.00,0.8238
3867.00,0.8234
3866.00,0.8229
3865.00,0.8223
3864.00,0.8219
3863.00,0.8220
3862.00,0.8220
3861.00,0.8217
3860.00,0.8214
3859.00,0.8212
3858.00,0.8211
3857.00,0.8211
3856.00,0.8211
3855.00,0.8207
3854.00,0.8190
3853.00,0.8176
3852.00,0.8186
3851.00,0.8193
3850.00,0.8191
3849.00,0.8187
3848.00,0.8186
3847.00,0.8188
3846.00,0.8192
3845.00,0.8193
3844.00,0.8190
3843.00,0.8183
3842.00,0.8176
3841.00,0.8166
3840.00,0.8156
3839.00,0.8154
3838.00,0.8165
3837.00,0.8179
3836.00,0.8184
3835.00,0.8180
3834.00,0.8170
3833.00,0.8159
3832.00,0.8149
3831.00,0.8145
3830.00,0.8143
3829.00,0.8140
3828.00,0.8136
3827.00,0.8131
3826.00,0.8129
3825.00,0.8129
3824.00,0.8130
3823.00,0.8131
3822.00,0.8129
3821.00,0.8126
3820.00,0.8131
3819.00,0.8134
3818.00,0.8131
3817.00,0.8126
3816.00,0.8122
3815.00,0.8120
3814.00,0.8115
3813.00,0.8106
3812.00,0.8099
3811.00,0.8097
3810.00,0.8098
3809.00,0.8099
3808.00,0.8095
3807.00,0.8090
3806.00,0.8089
3805.00,0.8089
3804.00,0.8085
3803.00,0.8077
3802.00,0.8064
3801.00,0.8060
3800.00,0.8067
3799.00,0.8070
3798.00,0.8069
3797.00,0.8066
3796.00,0.8062
3795.00,0.8059
3794.00,0.8056
3793.00,0.8055
3792.00,0.8055
3791.00,0.8057
3790.00,0.8059
3789.00,0.8058
3788.00,0.8056
3787.00,0.8053
3786.00,0.8049
3785.00,0.8044
3784.00,0.8040
3783.00,0.8038
3782.00,0.8039
3781.00,0.8043
3780.00,0.8047
3779.00,0.8049
3778.00,0.8046
3777.00,0.8037
3776.00,0.8028
3775.00,0.8023
3774.00,0.8022
3773.00,0.8023
3772.00,0.8024
3771.00,0.8025
3770.00,0.8025
3769.00,0.8025
3768.00,0.8023
3767.00,0.8019
3766.00,0.8014
3765.00,0.8010
3764.00,0.8008
3763.00,0.8006
3762.00,0.8005
3761.00,0.8006
3760.00,0.8007
3759.00,0.8007
3758.00,0.8007
3757.00,0.8005
3756.00,0.8002
3755.00,0.8001
3754.00,0.8002
3753.00,0.8000
3752.00,0.7987
3751.00,0.7974
3750.00,0.7978
3749.00,0.7990
3748.00,0.7996
3747.00,0.7996
3746.00,0.7994
3745.00,0.7991
3744.00,0.7997
3743.00,0.8009
3742.00,0.8013
3741.00,0.8012
3740.00,0.8014
3739.00,0.8020
3738.00,0.8029
3737.00,0.8033
3736.00,0.8025
3735.00,0.8013
3734.00,0.8006
3733.00,0.7996
3732.00,0.7986
3731.00,0.7979
3730.00,0.7975
3729.00,0.7973
3728.00,0.7972
3727.00,0.7975
3726.00,0.7980
3725.00,0.7982
3724.00,0.7979
3723.00,0.7974
3722.00,0.7973
3721.00,0.7976
3720.00,0.7979
3719.00,0.7981
3718.00,0.7983
3717.00,0.7985
3716.00,0.7987
3715.00,0.7990
3714.00,0.7994
3713.00,0.7995
3712.00,0.7992
3711.00,0.7991
3710.00,0.7995
3709.00,0.7994
3708.00,0.7991
3707.00,0.7990
3706.00,0.7990
3705.00,0.7992
3704.00,0.7994
3703.00,0.7996
3702.00,0.7999
3701.00,0.8002
3700.00,0.8006
3699.00,0.8008
3698.00,0.8010
3697.00,0.8014
3696.00,0.8018
3695.00,0.8023
3694.00,0.8029
3693.00,0.8034
3692.00,0.8041
3691.00,0.8053
3690.00,0.8073
3689.00,0.8092
3688.00,0.8098
3687.00,0.8093
3686.00,0.8084
3685.00,0.8078
3684.00,0.8076
3683.00,0.8078
3682.00,0.8082
3681.00,0.8088
3680.00,0.8096
3679.00,0.8108
3678.00,0.8118
3677.00,0.8123
3676.00,0.8124
3675.00,0.8141
3674.00,0.8164
3673.00,0.8170
3672.00,0.8169
3671.00,0.8167
3670.00,0.8173
3669.00,0.8188
3668.00,0.8199
3667.00,0.8203
3666.00,0.8206
3665.00,0.8213
3664.00,0.8222
3663.00,0.8234
3662.00,0.8250
3661.00,0.8270
3660.00,0.8288
3659.00,0.8302
3658.00,0.8311
3657.00,0.8317
3656.00,0.8323
3655.00,0.8331
3654.00,0.8339
3653.00,0.8350
3652.00,0.8366
3651.00,0.8386
3650.00,0.8403
3649.00,0.8411
3648.00,0.8415
3647.00,0.8421
3646.00,0.8427
3645.00,0.8433
3644.00,0.8438
3643.00,0.8445
3642.00,0.8455
3641.00,0.8466
3640.00,0.8475
3639.00,0.8484
3638.00,0.8494
3637.00,0.8506
3636.00,0.8518
3635.00,0.8532
3634.00,0.8547
3633.00,0.8559
3632.00,0.8567
3631.00,0.8572
3630.00,0.8575
3629.00,0.8587
3628.00,0.8615
3627.00,0.8635
3626.00,0.8642
3625.00,0.8647
3624.00,0.8656
3623.00,0.8670
3622.00,0.8687
3621.00,0.8703
3620.00,0.8716
3619.00,0.8726
3618.00,0.8737
3617.00,0.8745
3616.00,0.8750
3615.00,0.8758
3614.00,0.8768
3613.00,0.8779
3612.00,0.8791
3611.00,0.8801
3610.00,0.8809
3609.00,0.8819
3608.00,0.8832
3607.00,0.8848
3606.00,0.8863
3605.00,0.8873
3604.00,0.8882
3603.00,0.8892
3602.00,0.8904
3601.00,0.8919
3600.00,0.8934
3599.00,0.8946
3598.00,0.8952
3597.00,0.8956
3596.00,0.8962
3595.00,0.8974
3594.00,0.8992
3593.00,0.9009
3592.00,0.9020
3591.00,0.9027
3590.00,0.9034
3589.00,0.9042
3588.00,0.9060
3587.00,0.9092
3586.00,0.9122
3585.00,0.9134
3584.00,0.9135
3583.00,0.9136
3582.00,0.9139
3581.00,0.9142
3580.00,0.9145
3579.00,0.9148
3578.00,0.9155
3577.00,0.9163
3576.00,0.9171
3575.00,0.9179
3574.00,0.9189
3573.00,0.9199
3572.00,0.9213
3571.00,0.9229
3570.00,0.9245
3569.00,0.9256
3568.00,0.9259
3567.00,0.9262
3566.00,0.9277
3565.00,0.9294
3564.00,0.9304
3563.00,0.9314
3562.00,0.9326
3561.00,0.9338
3560.00,0.9346
3559.00,0.9350
3558.00,0.9352
3557.00,0.9354
3556.00,0.9356
3555.00,0.9359
3554.00,0.9366
3553.00,0.9376
3552.00,0.9388
3551.00,0.9396
3550.00,0.9400
3549.00,0.9404
3548.00,0.9411
3547.00,0.9424
3546.00,0.9440
3545.00,0.9451
3544.00,0.9453
3543.00,0.9445
3542.00,0.9431
3541.00,0.9415
3540.00,0.9402
3539.00,0.9394
3538.00,0.9394
3537.00,0.9399
3536.00,0.9403
3535.00,0.9401
3534.00,0.9394
3533.00,0.9386
3532.00,0.9381
3531.00,0.9381
3530.00,0.9387
3529.00,0.9395
3528.00,0.9404
3527.00,0.9416
3526.00,0.9431
3525.00,0.9449
3524.00,0.9464
3523.00,0.9475
3522.00,0.9478
3521.00,0.9476
3520.00,0.9474
3519.00,0.9476
3518.00,0.9483
3517.00,0.9493
3516.00,0.9504
3515.00,0.9518
3514.00,0.9532
3513.00,0.9543
3512.00,0.9548
3511.00,0.9552
3510.00,0.9560
3509.00,0.9571
3508.00,0.9582
3507.00,0.9592
3506.00,0.9605
3505.00,0.9624
3504.00,0.9648
3503.00,0.9672
3502.00,0.9690
3501.00,0.9700
3500.00,0.9706
3499.00,0.9713
3498.00,0.9725
3497.00,0.9739
3496.00,0.9750
3495.00,0.9758
3494.00,0.9765
3493.00,0.9770
3492.00,0.9772
3491.00,0.9776
3490.00,0.9783
3489.00,0.9796
3488.00,0.9813
3487.00,0.9828
3486.00,0.9836
3485.00,0.9836
3484.00,0.9834
3483.00,0.9838
3482.00,0.9853
3481.00,0.9873
3480.00,0.9890
3479.00,0.9899
3478.00,0.9901
3477.00,0.9900
3476.00,0.9899
3475.00,0.9901
3474.00,0.9906
3473.00,0.9914
3472.00,0.9925
3471.00,0.9941
3470.00,0.9959
3469.00,0.9976
3468.00,0.9986
3467.00,0.9992
3466.00,0.9992
3465.00,0.9989
3464.00,0.9982
3463.00,0.9980
3462.00,0.9985
3461.00,0.9996
3460.00,1.0004
3459.00,1.0008
3458.00,1.0006
3457.00,1.0003
3456.00,1.0001
3455.00,1.0003
3454.00,1.0009
3453.00,1.0016
3452.00,1.0021
3451.00,1.0024
3450.00,1.0030
3449.00,1.0041
3448.00,1.0057
3447.00,1.0075
3446.00,1.0088
3445.00,1.0095
3444.00,1.0099
3443.00,1.0105
3442.00,1.0115
3441.00,1.0130
3440.00,1.0150
3439.00,1.0175
3438.00,1.0203
3437.00,1.0227
3436.00,1.0246
3435.00,1.0263
3434.00,1.0280
3433.00,1.0298
3432.00,1.0315
3431.00,1.0331
3430.00,1.0348
3429.00,1.0361
3428.00,1.0370
3427.00,1.0377
3426.00,1.0386
3425.00,1.0396
3424.00,1.0407
3423.00,1.0423
3422.00,1.0444
3421.00,1.0468
3420.00,1.0487
3419.00,1.0499
3418.00,1.0508
3417.00,1.0519
3416.00,1.0533
3415.00,1.0552
3414.00,1.0572
3413.00,1.0589
3412.00,1.0599
3411.00,1.0605
3410.00,1.0609
3409.00,1.0610
3408.00,1.0606
3407.00,1.0601
3406.00,1.0600
3405.00,1.0605
3404.00,1.0614
3403.00,1.0625
3402.00,1.0633
3401.00,1.0638
3400.00,1.0638
3399.00,1.0635
3398.00,1.0629
3397.00,1.0621
3396.00,1.0614
3395.00,1.0610
3394.00,1.0614
3393.00,1.0621
3392.00,1.0626
3391.00,1.0624
3390.00,1.0616
3389.00,1.0604
3388.00,1.0592
3387.00,1.0583
3386.00,1.0581
3385.00,1.0581
3384.00,1.0584
3383.00,1.0589
3382.00,1.0597
3381.00,1.0605
3380.00,1.0611
3379.00,1.0614
3378.00,1.0618
3377.00,1.0622
3376.00,1.0624
3375.00,1.0625
3374.00,1.0628
3373.00,1.0634
3372.00,1.0644
3371.00,1.0656
3370.00,1.0668
3369.00,1.0678
3368.00,1.0682
3367.00,1.0681
3366.00,1.0677
3365.00,1.0670
3364.00,1.0664
3363.00,1.0664
3362.00,1.0671
3361.00,1.0680
3360.00,1.0683
3359.00,1.0681
3358.00,1.0677
3357.00,1.0675
3356.00,1.0677
3355.00,1.0684
3354.00,1.0696
3353.00,1.0711
3352.00,1.0725
3351.00,1.0738
3350.00,1.0746
3349.00,1.0747
3348.00,1.0745
3347.00,1.0747
3346.00,1.0757
3345.00,1.0773
3344.00,1.0789
3343.00,1.0804
3342.00,1.0818
3341.00,1.0832
3340.00,1.0845
3339.00,1.0861
3338.00,1.0876
3337.00,1.0885
3336.00,1.0889
3335.00,1.0889
3334.00,1.0890
3333.00,1.0893
3332.00,1.0899
3331.00,1.0910
3330.00,1.0924
3329.00,1.0943
3328.00,1.0964
3327.00,1.0987
3326.00,1.1008
3325.00,1.1023
3324.00,1.1030
3323.00,1.1033
3322.00,1.1035
3321.00,1.1039
3320.00,1.1043
3319.00,1.1050
3318.00,1.1059
3317.00,1.1067
3316.00,1.1075
3315.00,1.1085
3314.00,1.1098
3313.00,1.1112
3312.00,1.1125
3311.00,1.1140
3310.00,1.1157
3309.00,1.1173
3308.00,1.1183
3307.00,1.1191
3306.00,1.1197
3305.00,1.1201
3304.00,1.1202
3303.00,1.1200
3302.00,1.1197
3301.00,1.1194
3300.00,1.1192
3299.00,1.1195
3298.00,1.1208
3297.00,1.1226
3296.00,1.1242
3295.00,1.1254
3294.00,1.1263
3293.00,1.1272
3292.00,1.1280
3291.00,1.1289
3290.00,1.1295
3289.00,1.1297
3288.00,1.1297
3287.00,1.1301
3286.00,1.1312
3285.00,1.1325
3284.00,1.1336
3283.00,1.1348
3282.00,1.1363
3281.00,1.1377
3280.00,1.1389
3279.00,1.1400
3278.00,1.1416
3277.00,1.1436
3276.00,1.1457
3275.00,1.1476
3274.00,1.1492
3273.00,1.1505
3272.00,1.1516
3271.00,1.1525
3270.00,1.1530
3269.00,1.1528
3268.00,1.1521
3267.00,1.1514
3266.00,1.1511
3265.00,1.1510
3264.00,1.1508
3263.00,1.1506
3262.00,1.1506
3261.00,1.1506
3260.00,1.1504
3259.00,1.1502
3258.00,1.1504
3257.00,1.1507
3256.00,1.1508
3255.00,1.1503
3254.00,1.1491
3253.00,1.1475
3252.00,1.1459
3251.00,1.1449
3250.00,1.1444
3249.00,1.1443
3248.00,1.1442
3247.00,1.1440
3246.00,1.1437
3245.00,1.1428
3244.00,1.1411
3243.00,1.1395
3242.00,1.1385
3241.00,1.1380
3240.00,1.1376
3239.00,1.1372
3238.00,1.1368
3237.00,1.1367
3236.00,1.1368
3235.00,1.1372
3234.00,1.1376
3233.00,1.1373
3232.00,1.1360
3231.00,1.1337
3230.00,1.1311
3229.00,1.1284
3228.00,1.1259
3227.00,1.1239
3226.00,1.1224
3225.00,1.1211
3224.00,1.1195
3223.00,1.1179
3222.00,1.1165
3221.00,1.1154
3220.00,1.1144
3219.00,1.1133
3218.00,1.1120
3217.00,1.1105
3216.00,1.1089
3215.00,1.1074
3214.00,1.1060
3213.00,1.1045
3212.00,1.1027
3211.00,1.1012
3210.00,1.1001
3209.00,1.0992
3208.00,1.0983
3207.00,1.0974
3206.00,1.0964
3205.00,1.0950
3204.00,1.0935
3203.00,1.0920
3202.00,1.0907
3201.00,1.0893
3200.00,1.0878
3199.00,1.0865
3198.00,1.0855
3197.00,1.0845
3196.00,1.0833
3195.00,1.0822
3194.00,1.0814
3193.00,1.0805
3192.00,1.0794
3191.00,1.0783
3190.00,1.0774
3189.00,1.0763
3188.00,1.0749
3187.00,1.0733
3186.00,1.0720
3185.00,1.0708
3184.00,1.0694
3183.00,1.0681
3182.00,1.0671
3181.00,1.0661
3180.00,1.0648
3179.00,1.0633
3178.00,1.0618
3177.00,1.0603
3176.00,1.0589
3175.00,1.0576
3174.00,1.0564
3173.00,1.0552
3172.00,1.0538
3171.00,1.0523
3170.00,1.0509
3169.00,1.0495
3168.00,1.0480
3167.00,1.0465
3166.00,1.0452
3165.00,1.0439
3164.00,1.0425
3163.00,1.0411
3162.00,1.0398
3161.00,1.0383
3160.00,1.0366
3159.00,1.0349
3158.00,1.0336
3157.00,1.0325
3156.00,1.0317
3155.00,1.0311
3154.00,1.0304
3153.00,1.0295
3152.00,1.0279
3151.00,1.0258
3150.00,1.0234
3149.00,1.0206
3148.00,1.0178
3147.00,1.0153
3146.00,1.0133
3145.00,1.0114
3144.00,1.0096
3143.00,1.0081
3142.00,1.0071
3141.00,1.0063
3140.00,1.0052
3139.00,1.0038
3138.00,1.0018
3137.00,0.9993
3136.00,0.9964
3135.00,0.9938
3134.00,0.9917
3133.00,0.9899
3132.00,0.9881
3131.00,0.9865
3130.00,0.9847
3129.00,0.9824
3128.00,0.9797
3127.00,0.9769
3126.00,0.9745
3125.00,0.9724
3124.00,0.9706
3123.00,0.9689
3122.00,0.9674
3121.00,0.9659
3120.00,0.9640
3119.00,0.9617
3118.00,0.9594
3117.00,0.9570
3116.00,0.9545
3115.00,0.9519
3114.00,0.9492
3113.00,0.9465
3112.00,0.9438
3111.00,0.9412
3110.00,0.9391
3109.00,0.9371
3108.00,0.9351
3107.00,0.9329
3106.00,0.9307
3105.00,0.9287
3104.00,0.9269
3103.00,0.9256
3102.00,0.9247
3101.00,0.9239
3100.00,0.9227
3099.00,0.9211
3098.00,0.9193
3097.00,0.9174
3096.00,0.9156
3095.00,0.9141
3094.00,0.9129
3093.00,0.9118
3092.00,0.9107
3091.00,0.9095
3090.00,0.9083
3089.00,0.9069
3088.00,0.9054
3087.00,0.9039
3086.00,0.9025
3085.00,0.9013
3084.00,0.9000
3083.00,0.8986
3082.00,0.8973
3081.00,0.8961
3080.00,0.8947
3079.00,0.8932
3078.00,0.8917
3077.00,0.8900
3076.00,0.8881
3075.00,0.8862
3074.00,0.8843
3073.00,0.8826
3072.00,0.8809
3071.00,0.8793
3070.00,0.8779
3069.00,0.8767
3068.00,0.8755
3067.00,0.8742
3066.00,0.8728
3065.00,0.8712
3064.00,0.8695
3063.00,0.8678
3062.00,0.8661
3061.00,0.8643
3060.00,0.8625
3059.00,0.8608
3058.00,0.8592
3057.00,0.8575
3056.00,0.8556
3055.00,0.8536
3054.00,0.8515
3053.00,0.8496
3052.00,0.8478
3051.00,0.8461
3050.00,0.8445
3049.00,0.8429
3048.00,0.8412
3047.00,0.8396
3046.00,0.8380
3045.00,0.8365
3044.00,0.8351
3043.00,0.8342
3042.00,0.8340
3041.00,0.8347
3040.00,0.8365
3039.00,0.8396
3038.00,0.8435
3037.00,0.8475
3036.00,0.8509
3035.00,0.8538
3034.00,0.8567
3033.00,0.8600
3032.00,0.8634
3031.00,0.8658
3030.00,0.8662
3029.00,0.8640
3028.00,0.8596
3027.00,0.8537
3026.00,0.8473
3025.00,0.8409
3024.00,0.8350
3023.00,0.8298
3022.00,0.8253
3021.00,0.8214
3020.00,0.8180
3019.00,0.8149
3018.00,0.8122
3017.00,0.8099
3016.00,0.8078
3015.00,0.8059
3014.00,0.8042
3013.00,0.8027
3012.00,0.8012
3011.00,0.7998
3010.00,0.7986
3009.00,0.7974
3008.00,0.7963
3007.00,0.7955
3006.00,0.7949
3005.00,0.7945
3004.00,0.7940
3003.00,0.7934
3002.00,0.7930
3001.00,0.7927
3000.00,0.7925
2999.00,0.7924
2998.00,0.7924
2997.00,0.7925
2996.00,0.7925
2995.00,0.7925
2994.00,0.7927
2993.00,0.7928
2992.00,0.7928
2991.00,0.7926
2990.00,0.7923
2989.00,0.7919
2988.00,0.7915
2987.00,0.7911
2986.00,0.7908
2985.00,0.7905
2984.00,0.7901
2983.00,0.7899
2982.00,0.7897
2981.00,0.7895
2980.00,0.7891
2979.00,0.7886
2978.00,0.7881
2977.00,0.7875
2976.00,0.7869
2975.00,0.7863
2974.00,0.7858
2973.00,0.7852
2972.00,0.7846
2971.00,0.7839
2970.00,0.7834
2969.00,0.7828
2968.00,0.7821
2967.00,0.7813
2966.00,0.7805
2965.00,0.7799
2964.00,0.7792
2963.00,0.7786
2962.00,0.7780
2961.00,0.7775
2960.00,0.7771
2959.00,0.7768
2958.00,0.7768
2957.00,0.7769
2956.00,0.7769
2955.00,0.7769
2954.00,0.7768
2953.00,0.7767
2952.00,0.7766
2951.00,0.7766
2950.00,0.7767
2949.00,0.7768
2948.00,0.7768
2947.00,0.7767
2946.00,0.7766
2945.00,0.7766
2944.00,0.7764
2943.00,0.7762
2942.00,0.7761
2941.00,0.7760
2940.00,0.7756
2939.00,0.7751
2938.00,0.7744
2937.00,0.7737
2936.00,0.7729
2935.00,0.7722
2934.00,0.7715
2933.00,0.7707
2932.00,0.7699
2931.00,0.7690
2930.00,0.7681
2929.00,0.7671
2928.00,0.7659
2927.00,0.7649
2926.00,0.7640
2925.00,0.7632
2924.00,0.7624
2923.00,0.7616
2922.00,0.7610
2921.00,0.7604
2920.00,0.7599
2919.00,0.7593
2918.00,0.7588
2917.00,0.7582
2916.00,0.7575
2915.00,0.7567
2914.00,0.7561
2913.00,0.7554
2912.00,0.7548
2911.00,0.7541
2910.00,0.7534
2909.00,0.7526
2908.00,0.7516
2907.00,0.7507
2906.00,0.7498
2905.00,0.7490
2904.00,0.7482
2903.00,0.7472
2902.00,0.7463
2901.00,0.7452
2900.00,0.7442
2899.00,0.7432
2898.00,0.7425
2897.00,0.7418
2896.00,0.7410
2895.00,0.7401
2894.00,0.7391
2893.00,0.7382
2892.00,0.7372
2891.00,0.7363
2890.00,0.7356
2889.00,0.7350
2888.00,0.7344
2887.00,0.7339
2886.00,0.7335
2885.00,0.7331
2884.00,0.7326
2883.00,0.7319
2882.00,0.7313
2881.00,0.7306
2880.00,0.7299
2879.00,0.7292
2878.00,0.7285
2877.00,0.7277
2876.00,0.7269
2875.00,0.7261
2874.00,0.7254
2873.00,0.7246
2872.00,0.7238
2871.00,0.7229
2870.00,0.7219
2869.00,0.7210
2868.00,0.7201
2867.00,0.7192
2866.00,0.7184
2865.00,0.7176
2864.00,0.7168
2863.00,0.7160
2862.00,0.7153
2861.00,0.7149
2860.00,0.7144
2859.00,0.7139
2858.00,0.7133
2857.00,0.7125
2856.00,0.7118
2855.00,0.7113
2854.00,0.7109
2853.00,0.7107
2852.00,0.7105
2851.00,0.7104
2850.00,0.7105
2849.00,0.7107
2848.00,0.7108
2847.00,0.7107
2846.00,0.7106
2845.00,0.7105
2844.00,0.7104
2843.00,0.7104
2842.00,0.7105
2841.00,0.7106
2840.00,0.7105
2839.00,0.7104
2838.00,0.7100
2837.00,0.7093
2836.00,0.7085
2835.00,0.7075
2834.00,0.7066
2833.00,0.7055
2832.00,0.7044
2831.00,0.7031
2830.00,0.7018
2829.00,0.7004
2828.00,0.6989
2827.00,0.6973
2826.00,0.6958
2825.00,0.6942
2824.00,0.6924
2823.00,0.6906
2822.00,0.6886
2821.00,0.6866
2820.00,0.6845
2819.00,0.6823
2818.00,0.6801
2817.00,0.6778
2816.00,0.6754
2815.00,0.6729
2814.00,0.6703
2813.00,0.6677
2812.00,0.6651
2811.00,0.6625
2810.00,0.6599
2809.00,0.6572
2808.00,0.6544
2807.00,0.6515
2806.00,0.6488
2805.00,0.6462
2804.00,0.6438
2803.00,0.6416
2802.00,0.6395
2801.00,0.6377
2800.00,0.6359
2799.00,0.6343
2798.00,0.6328
2797.00,0.6314
2796.00,0.6299
2795.00,0.6285
2794.00,0.6272
2793.00,0.6262
2792.00,0.6252
2791.00,0.6243
2790.00,0.6235
2789.00,0.6228
2788.00,0.6220
2787.00,0.6211
2786.00,0.6203
2785.00,0.6196
2784.00,0.6190
2783.00,0.6184
2782.00,0.6179
2781.00,0.6175
2780.00,0.6170
2779.00,0.6165
2778.00,0.6162
2777.00,0.6159
2776.00,0.6157
2775.00,0.6154
2774.00,0.6150
2773.00,0.6146
2772.00,0.6141
2771.00,0.6137
2770.00,0.6134
2769.00,0.6132
2768.00,0.6129
2767.00,0.6126
2766.00,0.6123
2765.00,0.6122
2764.00,0.6120
2763.00,0.6118
2762.00,0.6116
2761.00,0.6115
2760.00,0.6114
2759.00,0.6114
2758.00,0.6114
2757.00,0.6114
2756.00,0.6114
2755.00,0.6114
2754.00,0.6115
2753.00,0.6117
2752.00,0.6119
2751.00,0.6123
2750.00,0.6127
2749.00,0.6132
2748.00,0.6136
2747.00,0.6140
2746.00,0.6143
2745.00,0.6146
2744.00,0.6149
2743.00,0.6150
2742.00,0.6152
2741.00,0.6152
2740.00,0.6153
2739.00,0.6154
2738.00,0.6156
2737.00,0.6156
2736.00,0.6156
2735.00,0.6154
2734.00,0.6153
2733.00,0.6152
2732.00,0.6151
2731.00,0.6150
2730.00,0.6150
2729.00,0.6151
2728.00,0.6152
2727.00,0.6153
2726.00,0.6153
2725.00,0.6153
2724.00,0.6152
2723.00,0.6150
2722.00,0.6149
2721.00,0.6147
2720.00,0.6144
2719.00,0.6142
2718.00,0.6139
2717.00,0.6137
2716.00,0.6134
2715.00,0.6131
2714.00,0.6127
2713.00,0.6122
2712.00,0.6116
2711.00,0.6111
2710.00,0.6107
2709.00,0.6103
2708.00,0.6098
2707.00,0.6092
2706.00,0.6087
2705.00,0.6081
2704.00,0.6074
2703.00,0.6068
2702.00,0.6062
2701.00,0.6055
2700.00,0.6047
2699.00,0.6039
2698.00,0.6030
2697.00,0.6022
2696.00,0.6013
2695.00,0.6004
2694.00,0.5995
2693.00,0.5985
2692.00,0.5975
2691.00,0.5965
2690.00,0.5955
2689.00,0.5945
2688.00,0.5934
2687.00,0.5922
2686.00,0.5911
2685.00,0.5899
2684.00,0.5888
2683.00,0.5876
2682.00,0.5864
2681.00,0.5852
2680.00,0.5839
2679.00,0.5827
2678.00,0.5815
2677.00,0.5802
2676.00,0.5790
2675.00,0.5778
2674.00,0.5766
2673.00,0.5754
2672.00,0.5741
2671.00,0.5729
2670.00,0.5717
2669.00,0.5706
2668.00,0.5693
2667.00,0.5680
2666.00,0.5668
2665.00,0.5658
2664.00,0.5648
2663.00,0.5639
2662.00,0.5630
2661.00,0.5621
2660.00,0.5611
2659.00,0.5602
2658.00,0.5595
2657.00,0.5588
2656.00,0.5581
2655.00,0.5574
2654.00,0.5567
2653.00,0.5561
2652.00,0.5556
2651.00,0.5552
2650.00,0.5548
2649.00,0.5545
2648.00,0.5541
2647.00,0.5538
2646.00,0.5535
2645.00,0.5533
2644.00,0.5531
2643.00,0.5530
2642.00,0.5529
2641.00,0.5528
2640.00,0.5527
2639.00,0.5527
2638.00,0.5528
2637.00,0.5530
2636.00,0.5532
2635.00,0.5533
2634.00,0.5535
2633.00,0.5536
2632.00,0.5537
2631.00,0.5539
2630.00,0.5541
2629.00,0.5543
2628.00,0.5544
2627.00,0.5545
2626.00,0.5546
2625.00,0.5547
2624.00,0.5547
2623.00,0.5548
2622.00,0.5549
2621.00,0.5549
2620.00,0.5549
2619.00,0.5549
2618.00,0.5550
2617.00,0.5551
2616.00,0.5553
2615.00,0.5553
2614.00,0.5554
2613.00,0.5553
2612.00,0.5552
2611.00,0.5551
2610.00,0.5549
2609.00,0.5548
2608.00,0.5547
2607.00,0.5546
2606.00,0.5544
2605.00,0.5543
2604.00,0.5541
2603.00,0.5539
2602.00,0.5538
2601.00,0.5536
2600.00,0.5533
2599.00,0.5529
2598.00,0.5526
2597.00,0.5523
2596.00,0.5520
2595.00,0.5517
2594.00,0.5514
2593.00,0.5511
2592.00,0.5507
2591.00,0.5503
2590.00,0.5500
2589.00,0.5496
2588.00,0.5492
2587.00,0.5488
2586.00,0.5484
2585.00,0.5479
2584.00,0.5475
2583.00,0.5469
2582.00,0.5464
2581.00,0.5459
2580.00,0.5454
2579.00,0.5449
2578.00,0.5444
2577.00,0.5439
2576.00,0.5434
2575.00,0.5429
2574.00,0.5423
2573.00,0.5417
2572.00,0.5411
2571.00,0.5405
2570.00,0.5400
2569.00,0.5396
2568.00,0.5392
2567.00,0.5388
2566.00,0.5383
2565.00,0.5378
2564.00,0.5373
2563.00,0.5367
2562.00,0.5361
2561.00,0.5354
2560.00,0.5346
2559.00,0.5338
2558.00,0.5329
2557.00,0.5321
2556.00,0.5311
2555.00,0.5301
2554.00,0.5291
2553.00,0.5281
2552.00,0.5270
2551.00,0.5260
2550.00,0.5250
2549.00,0.5239
2548.00,0.5228
2547.00,0.5217
2546.00,0.5205
2545.00,0.5194
2544.00,0.5183
2543.00,0.5173
2542.00,0.5162
2541.00,0.5152
2540.00,0.5141
2539.00,0.5130
2538.00,0.5120
2537.00,0.5111
2536.00,0.5103
2535.00,0.5095
2534.00,0.5088
2533.00,0.5080
2532.00,0.5072
2531.00,0.5065
2530.00,0.5058
2529.00,0.5052
2528.00,0.5047
2527.00,0.5042
2526.00,0.5037
2525.00,0.5033
2524.00,0.5029
2523.00,0.5026
2522.00,0.5022
2521.00,0.5018
2520.00,0.5014
2519.00,0.5010
2518.00,0.5006
2517.00,0.5003
2516.00,0.5001
2515.00,0.4998
2514.00,0.4996
2513.00,0.4994
2512.00,0.4992
2511.00,0.4991
2510.00,0.4990
2509.00,0.4990
2508.00,0.4990
2507.00,0.4990
2506.00,0.4990
2505.00,0.4990
2504.00,0.4991
2503.00,0.4991
2502.00,0.4991
2501.00,0.4991
2500.00,0.4991
2499.00,0.4991
2498.00,0.4991
2497.00,0.4991
2496.00,0.4991
2495.00,0.4991
2494.00,0.4991
2493.00,0.4990
2492.00,0.4990
2491.00,0.4989
2490.00,0.4989
2489.00,0.4988
2488.00,0.4987
2487.00,0.4986
2486.00,0.4985
2485.00,0.4985
2484.00,0.4984
2483.00,0.4983
2482.00,0.4982
2481.00,0.4981
2480.00,0.4980
2479.00,0.4978
2478.00,0.4977
2477.00,0.4976
2476.00,0.4975
2475.00,0.4974
2474.00,0.4972
2473.00,0.4971
2472.00,0.4968
2471.00,0.4966
2470.00,0.4965
2469.00,0.4964
2468.00,0.4962
2467.00,0.4960
2466.00,0.4957
2465.00,0.4954
2464.00,0.4951
2463.00,0.4947
2462.00,0.4943
2461.00,0.4939
2460.00,0.4936
2459.00,0.4932
2458.00,0.4927
2457.00,0.4922
2456.00,0.4916
2455.00,0.4910
2454.00,0.4904
2453.00,0.4899
2452.00,0.4892
2451.00,0.4886
2450.00,0.4879
2449.00,0.4872
2448.00,0.4865
2447.00,0.4858
2446.00,0.4851
2445.00,0.4844
2444.00,0.4837
2443.00,0.4830
2442.00,0.4822
2441.00,0.4814
2440.00,0.4807
2439.00,0.4800
2438.00,0.4794
2437.00,0.4788
2436.00,0.4781
2435.00,0.4775
2434.00,0.4768
2433.00,0.4762
2432.00,0.4756
2431.00,0.4750
2430.00,0.4744
2429.00,0.4739
2428.00,0.4733
2427.00,0.4728
2426.00,0.4722
2425.00,0.4717
2424.00,0.4710
2423.00,0.4703
2422.00,0.4697
2421.00,0.4692
2420.00,0.4687
2419.00,0.4682
2418.00,0.4677
2417.00,0.4672
2416.00,0.4667
2415.00,0.4662
2414.00,0.4658
2413.00,0.4654
2412.00,0.4650
2411.00,0.4645
2410.00,0.4640
2409.00,0.4634
2408.00,0.4629
2407.00,0.4624
2406.00,0.4619
2405.00,0.4614
2404.00,0.4608
2403.00,0.4602
2402.00,0.4596
2401.00,0.4591
2400.00,0.4585
2399.00,0.4579
2398.00,0.4573
2397.00,0.4568
2396.00,0.4562
2395.00,0.4556
2394.00,0.4550
2393.00,0.4545
2392.00,0.4540
2391.00,0.4535
2390.00,0.4531
2389.00,0.4526
2388.00,0.4521
2387.00,0.4516
2386.00,0.4511
2385.00,0.4506
2384.00,0.4500
2383.00,0.4494
2382.00,0.4487
2381.00,0.4482
2380.00,0.4477
2379.00,0.4473
2378.00,0.4469
2377.00,0.4465
2376.00,0.4461
2375.00,0.4457
2374.00,0.4453
2373.00,0.4449
2372.00,0.4446
2371.00,0.4444
2370.00,0.4443
2369.00,0.4441
2368.00,0.4436
2367.00,0.4430
2366.00,0.4424
2365.00,0.4419
2364.00,0.4413
2363.00,0.4406
2362.00,0.4399
2361.00,0.4394
2360.00,0.4390
2359.00,0.4385
2358.00,0.4381
2357.00,0.4377
2356.00,0.4373
2355.00,0.4368
2354.00,0.4364
2353.00,0.4361
2352.00,0.4355
2351.00,0.4350
2350.00,0.4346
2349.00,0.4344
2348.00,0.4342
2347.00,0.4337
2346.00,0.4330
2345.00,0.4322
2344.00,0.4317
2343.00,0.4314
2342.00,0.4312
2341.00,0.4309
2340.00,0.4305
2339.00,0.4300
2338.00,0.4297
2337.00,0.4295
2336.00,0.4292
2335.00,0.4287
2334.00,0.4283
2333.00,0.4278
2332.00,0.4273
2331.00,0.4268
2330.00,0.4265
2329.00,0.4261
2328.00,0.4258
2327.00,0.4255
2326.00,0.4252
2325.00,0.4249
2324.00,0.4246
2323.00,0.4243
2322.00,0.4242
2321.00,0.4243
2320.00,0.4243
2319.00,0.4242
2318.00,0.4241
2317.00,0.4239
2316.00,0.4237
2315.00,0.4233
2314.00,0.4229
2313.00,0.4225
2312.00,0.4222
2311.00,0.4221
2310.00,0.4220
2309.00,0.4218
2308.00,0.4217
2307.00,0.4215
2306.00,0.4214
2305.00,0.4212
2304.00,0.4211
2303.00,0.4210
2302.00,0.4209
2301.00,0.4208
2300.00,0.4206
2299.00,0.4204
2298.00,0.4203
2297.00,0.4201
2296.00,0.4199
2295.00,0.4197
2294.00,0.4196
2293.00,0.4194
2292.00,0.4192
2291.00,0.4190
2290.00,0.4188
2289.00,0.4187
2288.00,0.4186
2287.00,0.4184
2286.00,0.4183
2285.00,0.4182
2284.00,0.4180
2283.00,0.4178
2282.00,0.4176
2281.00,0.4173
2280.00,0.4171
2279.00,0.4168
2278.00,0.4166
2277.00,0.4164
2276.00,0.4162
2275.00,0.4160
2274.00,0.4158
2273.00,0.4157
2272.00,0.4156
2271.00,0.4154
2270.00,0.4153
2269.00,0.4151
2268.00,0.4149
2267.00,0.4146
2266.00,0.4144
2265.00,0.4141
2264.00,0.4139
2263.00,0.4136
2262.00,0.4133
2261.00,0.4130
2260.00,0.4128
2259.00,0.4124
2258.00,0.4121
2257.00,0.4118
2256.00,0.4115
2255.00,0.4113
2254.00,0.4110
2253.00,0.4107
2252.00,0.4104
2251.00,0.4102
2250.00,0.4099
2249.00,0.4097
2248.00,0.4094
2247.00,0.4091
2246.00,0.4088
2245.00,0.4086
2244.00,0.4084
2243.00,0.4081
2242.00,0.4079
2241.00,0.4077
2240.00,0.4075
2239.00,0.4073
2238.00,0.4071
2237.00,0.4069
2236.00,0.4067
2235.00,0.4065
2234.00,0.4063
2233.00,0.4062
2232.00,0.4060
2231.00,0.4059
2230.00,0.4057
2229.00,0.4054
2228.00,0.4051
2227.00,0.4049
2226.00,0.4047
2225.00,0.4046
2224.00,0.4044
2223.00,0.4042
2222.00,0.4040
2221.00,0.4037
2220.00,0.4035
2219.00,0.4033
2218.00,0.4031
2217.00,0.4029
2216.00,0.4027
2215.00,0.4025
2214.00,0.4023
2213.00,0.4020
2212.00,0.4018
2211.00,0.4016
2210.00,0.4014
2209.00,0.4012
2208.00,0.4010
2207.00,0.4007
2206.00,0.4005
2205.00,0.4003
2204.00,0.4001
2203.00,0.4000
2202.00,0.3998
2201.00,0.3996
2200.00,0.3994
2199.00,0.3992
2198.00,0.3991
2197.00,0.3989
2196.00,0.3987
2195.00,0.3985
2194.00,0.3983
2193.00,0.3982
2192.00,0.3980
2191.00,0.3978
2190.00,0.3977
2189.00,0.3975
2188.00,0.3974
2187.00,0.3972
2186.00,0.3971
2185.00,0.3971
2184.00,0.3969
2183.00,0.3968
2182.00,0.3967
2181.00,0.3966
2180.00,0.3967
2179.00,0.3967
2178.00,0.3968
2177.00,0.3968
2176.00,0.3969
2175.00,0.3968
2174.00,0.3967
2173.00,0.3966
2172.00,0.3964
2171.00,0.3962
2170.00,0.3960
2169.00,0.3959
2168.00,0.3957
2167.00,0.3955
2166.00,0.3953
2165.00,0.3950
2164.00,0.3948
2163.00,0.3946
2162.00,0.3944
2161.00,0.3942
2160.00,0.3940
2159.00,0.3938
2158.00,0.3936
2157.00,0.3934
2156.00,0.3933
2155.00,0.3931
2154.00,0.3930
2153.00,0.3928
2152.00,0.3926
2151.00,0.3925
2150.00,0.3924
2149.00,0.3923
2148.00,0.3922
2147.00,0.3921
2146.00,0.3919
2145.00,0.3918
2144.00,0.3916
2143.00,0.3915
2142.00,0.3914
2141.00,0.3913
2140.00,0.3912
2139.00,0.3910
2138.00,0.3909
2137.00,0.3907
2136.00,0.3906
2135.00,0.3905
2134.00,0.3904
2133.00,0.3903
2132.00,0.3901
2131.00,0.3900
2130.00,0.3899
2129.00,0.3897
2128.00,0.3896
2127.00,0.3895
2126.00,0.3895
2125.00,0.3894
2124.00,0.3894
2123.00,0.3893
2122.00,0.3892
2121.00,0.3890
2120.00,0.3889
2119.00,0.3888
2118.00,0.3887
2117.00,0.3886
2116.00,0.3886
2115.00,0.3885
2114.00,0.3884
2113.00,0.3883
2112.00,0.3882
2111.00,0.3880
2110.00,0.3878
2109.00,0.3876
2108.00,0.3874
2107.00,0.3872
2106.00,0.3869
2105.00,0.3867
2104.00,0.3865
2103.00,0.3862
2102.00,0.3860
2101.00,0.3857
2100.00,0.3855
2099.00,0.3853
2098.00,0.3851
2097.00,0.3849
2096.00,0.3846
2095.00,0.3844
2094.00,0.3841
2093.00,0.3839
2092.00,0.3837
2091.00,0.3834
2090.00,0.3832
2089.00,0.3830
2088.00,0.3828
2087.00,0.3825
2086.00,0.3823
2085.00,0.3821
2084.00,0.3819
2083.00,0.3817
2082.00,0.3814
2081.00,0.3811
2080.00,0.3809
2079.00,0.3807
2078.00,0.3805
2077.00,0.3802
2076.00,0.3799
2075.00,0.3796
2074.00,0.3793
2073.00,0.3790
2072.00,0.3788
2071.00,0.3785
2070.00,0.3782
2069.00,0.3779
2068.00,0.3776
2067.00,0.3773
2066.00,0.3770
2065.00,0.3768
2064.00,0.3765
2063.00,0.3763
2062.00,0.3760
2061.00,0.3758
2060.00,0.3755
2059.00,0.3752
2058.00,0.3749
2057.00,0.3746
2056.00,0.3744
2055.00,0.3741
2054.00,0.3738
2053.00,0.3736
2052.00,0.3733
2051.00,0.3731
2050.00,0.3728
2049.00,0.3725
2048.00,0.3723
2047.00,0.3720
2046.00,0.3718
2045.00,0.3716
2044.00,0.3714
2043.00,0.3711
2042.00,0.3709
2041.00,0.3707
2040.00,0.3705
2039.00,0.3704
2038.00,0.3703
2037.00,0.3703
2036.00,0.3703
2035.00,0.3704
2034.00,0.3704
2033.00,0.3705
2032.00,0.3706
2031.00,0.3707
2030.00,0.3708
2029.00,0.3709
2028.00,0.3710
2027.00,0.3711
2026.00,0.3711
2025.00,0.3711
2024.00,0.3710
2023.00,0.3709
2022.00,0.3708
2021.00,0.3707
2020.00,0.3706
2019.00,0.3704
2018.00,0.3701
2017.00,0.3699
2016.00,0.3697
2015.00,0.3695
2014.00,0.3693
2013.00,0.3689
2012.00,0.3686
2011.00,0.3681
2010.00,0.3676
2009.00,0.3671
2008.00,0.3665
2007.00,0.3660
2006.00,0.3654
2005.00,0.3648
2004.00,0.3641
2003.00,0.3635
2002.00,0.3629
2001.00,0.3623
2000.00,0.3618
1999.00,0.3612
1998.00,0.3606
1997.00,0.3600
1996.00,0.3595
1995.00,0.3589
1994.00,0.3582
1993.00,0.3576
1992.00,0.3570
1991.00,0.3564
1990.00,0.3559
1989.00,0.3554
1988.00,0.3549
1987.00,0.3544
1986.00,0.3540
1985.00,0.3535
1984.00,0.3531
1983.00,0.3527
1982.00,0.3522
1981.00,0.3518
1980.00,0.3513
1979.00,0.3509
1978.00,0.3504
1977.00,0.3499
1976.00,0.3495
1975.00,0.3490
1974.00,0.3485
1973.00,0.3480
1972.00,0.3475
1971.00,0.3471
1970.00,0.3466
1969.00,0.3462
1968.00,0.3457
1967.00,0.3451
1966.00,0.3446
1965.00,0.3442
1964.00,0.3438
1963.00,0.3435
1962.00,0.3430
1961.00,0.3426
1960.00,0.3421
1959.00,0.3416
1958.00,0.3412
1957.00,0.3408
1956.00,0.3404
1955.00,0.3401
1954.00,0.3397
1953.00,0.3393
1952.00,0.3390
1951.00,0.3386
1950.00,0.3382
1949.00,0.3379
1948.00,0.3375
1947.00,0.3372
1946.00,0.3369
1945.00,0.3366
1944.00,0.3364
1943.00,0.3361
1942.00,0.3359
1941.00,0.3357
1940.00,0.3356
1939.00,0.3354
1938.00,0.3352
1937.00,0.3351
1936.00,0.3350
1935.00,0.3348
1934.00,0.3347
1933.00,0.3345
1932.00,0.3344
1931.00,0.3343
1930.00,0.3343
1929.00,0.3342
1928.00,0.3341
1927.00,0.3340
1926.00,0.3337
1925.00,0.3335
1924.00,0.3332
1923.00,0.3328
1922.00,0.3324
1921.00,0.3321
1920.00,0.3317
1919.00,0.3313
1918.00,0.3308
1917.00,0.3303
1916.00,0.3298
1915.00,0.3293
1914.00,0.3289
1913.00,0.3285
1912.00,0.3281
1911.00,0.3277
1910.00,0.3272
1909.00,0.3268
1908.00,0.3266
1907.00,0.3263
1906.00,0.3260
1905.00,0.3258
1904.00,0.3255
1903.00,0.3253
1902.00,0.3251
1901.00,0.3249
1900.00,0.3248
1899.00,0.3246
1898.00,0.3243
1897.00,0.3241
1896.00,0.3239
1895.00,0.3238
1894.00,0.3237
1893.00,0.3237
1892.00,0.3237
1891.00,0.3236
1890.00,0.3235
1889.00,0.3234
1888.00,0.3236
1887.00,0.3236
1886.00,0.3237
1885.00,0.3237
1884.00,0.3238
1883.00,0.3238
1882.00,0.3239
1881.00,0.3243
1880.00,0.3248
1879.00,0.3254
1878.00,0.3262
1877.00,0.3271
1876.00,0.3283
1875.00,0.3296
1874.00,0.3313
1873.00,0.3332
1872.00,0.3353
1871.00,0.3372
1870.00,0.3388
1869.00,0.3400
1868.00,0.3405
1867.00,0.3407
1866.00,0.3408
1865.00,0.3410
1864.00,0.3413
1863.00,0.3419
1862.00,0.3426
1861.00,0.3435
1860.00,0.3446
1859.00,0.3459
1858.00,0.3474
1857.00,0.3490
1856.00,0.3502
1855.00,0.3503
1854.00,0.3491
1853.00,0.3464
1852.00,0.3429
1851.00,0.3393
1850.00,0.3360
1849.00,0.3331
1848.00,0.3306
1847.00,0.3286
1846.00,0.3270
1845.00,0.3258
1844.00,0.3250
1843.00,0.3245
1842.00,0.3242
1841.00,0.3240
1840.00,0.3238
1839.00,0.3235
1838.00,0.3230
1837.00,0.3225
1836.00,0.3218
1835.00,0.3212
1834.00,0.3204
1833.00,0.3197
1832.00,0.3190
1831.00,0.3184
1830.00,0.3177
1829.00,0.3171
1828.00,0.3167
1827.00,0.3164
1826.00,0.3160
1825.00,0.3157
1824.00,0.3154
1823.00,0.3151
1822.00,0.3148
1821.00,0.3146
1820.00,0.3145
1819.00,0.3143
1818.00,0.3140
1817.00,0.3138
1816.00,0.3136
1815.00,0.3135
1814.00,0.3132
1813.00,0.3130
1812.00,0.3128
1811.00,0.3126
1810.00,0.3124
1809.00,0.3122
1808.00,0.3121
1807.00,0.3119
1806.00,0.3118
1805.00,0.3116
1804.00,0.3114
1803.00,0.3112
1802.00,0.3111
1801.00,0.3110
1800.00,0.3111
1799.00,0.3112
1798.00,0.3110
1797.00,0.3108
1796.00,0.3107
1795.00,0.3105
1794.00,0.3104
1793.00,0.3104
1792.00,0.3106
1791.00,0.3107
1790.00,0.3107
1789.00,0.3108
1788.00,0.3108
1787.00,0.3107
1786.00,0.3105
1785.00,0.3104
1784.00,0.3104
1783.00,0.3104
1782.00,0.3104
1781.00,0.3103
1780.00,0.3103
1779.00,0.3103
1778.00,0.3102
1777.00,0.3102
1776.00,0.3102
1775.00,0.3102
1774.00,0.3100
1773.00,0.3100
1772.00,0.3102
1771.00,0.3105
1770.00,0.3104
1769.00,0.3103
1768.00,0.3103
1767.00,0.3103
1766.00,0.3103
1765.00,0.3102
1764.00,0.3102
1763.00,0.3103
1762.00,0.3103
1761.00,0.3105
1760.00,0.3107
1759.00,0.3109
1758.00,0.3110
1757.00,0.3115
1756.00,0.3122
1755.00,0.3127
1754.00,0.3128
1753.00,0.3129
1752.00,0.3132
1751.00,0.3135
1750.00,0.3138
1749.00,0.3142
1748.00,0.3147
1747.00,0.3151
1746.00,0.3153
1745.00,0.3155
1744.00,0.3158
1743.00,0.3161
1742.00,0.3163
1741.00,0.3165
1740.00,0.3170
1739.00,0.3173
1738.00,0.3172
1737.00,0.3170
1736.00,0.3169
1735.00,0.3168
1734.00,0.3163
1733.00,0.3158
1732.00,0.3156
1731.00,0.3156
1730.00,0.3155
1729.00,0.3156
1728.00,0.3159
1727.00,0.3160
1726.00,0.3160
1725.00,0.3161
1724.00,0.3163
1723.00,0.3165
1722.00,0.3165
1721.00,0.3164
1720.00,0.3165
1719.00,0.3168
1718.00,0.3172
1717.00,0.3175
1716.00,0.3181
1715.00,0.3186
1714.00,0.3191
1713.00,0.3196
1712.00,0.3202
1711.00,0.3207
1710.00,0.3210
1709.00,0.3215
1708.00,0.3220
1707.00,0.3227
1706.00,0.3235
1705.00,0.3245
1704.00,0.3253
1703.00,0.3257
1702.00,0.3259
1701.00,0.3267
1700.00,0.3285
1699.00,0.3297
1698.00,0.3299
1697.00,0.3304
1696.00,0.3317
1695.00,0.3332
1694.00,0.3340
1693.00,0.3344
1692.00,0.3348
1691.00,0.3354
1690.00,0.3360
1689.00,0.3368
1688.00,0.3375
1687.00,0.3380
1686.00,0.3384
1685.00,0.3396
1684.00,0.3422
1683.00,0.3443
1682.00,0.3448
1681.00,0.3455
1680.00,0.3466
1679.00,0.3478
1678.00,0.3487
1677.00,0.3495
1676.00,0.3510
1675.00,0.3529
1674.00,0.3544
1673.00,0.3554
1672.00,0.3563
1671.00,0.3573
1670.00,0.3589
1669.00,0.3611
1668.00,0.3631
1667.00,0.3644
1666.00,0.3651
1665.00,0.3658
1664.00,0.3671
1663.00,0.3689
1662.00,0.3708
1661.00,0.3726
1660.00,0.3741
1659.00,0.3755
1658.00,0.3766
1657.00,0.3776
1656.00,0.3786
1655.00,0.3795
1654.00,0.3815
1653.00,0.3861
1652.00,0.3900
1651.00,0.3909
1650.00,0.3910
1649.00,0.3915
1648.00,0.3933
1647.00,0.3971
1646.00,0.4012
1645.00,0.4040
1644.00,0.4061
1643.00,0.4080
1642.00,0.4101
1641.00,0.4123
1640.00,0.4142
1639.00,0.4153
1638.00,0.4155
1637.00,0.4146
1636.00,0.4121
1635.00,0.4082
1634.00,0.4049
1633.00,0.4027
1632.00,0.4010
1631.00,0.3995
1630.00,0.3982
1629.00,0.3977
1628.00,0.3980
1627.00,0.3986
1626.00,0.3991
1625.00,0.3997
1624.00,0.4009
1623.00,0.4027
1622.00,0.4041
1621.00,0.4050
1620.00,0.4056
1619.00,0.4060
1618.00,0.4058
1617.00,0.4047
1616.00,0.4024
1615.00,0.3997
1614.00,0.3968
1613.00,0.3941
1612.00,0.3912
1611.00,0.3879
1610.00,0.3839
1609.00,0.3792
1608.00,0.3741
1607.00,0.3688
1606.00,0.3638
1605.00,0.3592
1604.00,0.3548
1603.00,0.3504
1602.00,0.3462
1601.00,0.3429
1600.00,0.3402
1599.00,0.3378
1598.00,0.3358
1597.00,0.3342
1596.00,0.3328
1595.00,0.3313
1594.00,0.3300
1593.00,0.3289
1592.00,0.3279
1591.00,0.3268
1590.00,0.3258
1589.00,0.3250
1588.00,0.3244
1587.00,0.3237
1586.00,0.3231
1585.00,0.3229
1584.00,0.3228
1583.00,0.3226
1582.00,0.3224
1581.00,0.3225
1580.00,0.3225
1579.00,0.3223
1578.00,0.3221
1577.00,0.3226
1576.00,0.3236
1575.00,0.3242
1574.00,0.3245
1573.00,0.3248
1572.00,0.3252
1571.00,0.3254
1570.00,0.3260
1569.00,0.3274
1568.00,0.3286
1567.00,0.3290
1566.00,0.3296
1565.00,0.3308
1564.00,0.3322
1563.00,0.3328
1562.00,0.3329
1561.00,0.3334
1560.00,0.3354
1559.00,0.3388
1558.00,0.3416
1557.00,0.3431
1556.00,0.3441
1555.00,0.3451
1554.00,0.3468
1553.00,0.3492
1552.00,0.3514
1551.00,0.3534
1550.00,0.3562
1549.00,0.3598
1548.00,0.3630
1547.00,0.3650
1546.00,0.3670
1545.00,0.3711
1544.00,0.3765
1543.00,0.3807
1542.00,0.3838
1541.00,0.3919
1540.00,0.4079
1539.00,0.4210
1538.00,0.4276
1537.00,0.4326
1536.00,0.4374
1535.00,0.4435
1534.00,0.4546
1533.00,0.4710
1532.00,0.4842
1531.00,0.4911
1530.00,0.4968
1529.00,0.5047
1528.00,0.5162
1527.00,0.5319
1526.00,0.5530
1525.00,0.5772
1524.00,0.5995
1523.00,0.6211
1522.00,0.6570
1521.00,0.7108
1520.00,0.7506
1519.00,0.7641
1518.00,0.7668
1517.00,0.7625
1516.00,0.7499
1515.00,0.7343
1514.00,0.7200
1513.00,0.7054
1512.00,0.6868
1511.00,0.6665
1510.00,0.6475
1509.00,0.6312
1508.00,0.6055
1507.00,0.5536
1506.00,0.5101
1505.00,0.4937
1504.00,0.4850
1503.00,0.4770
1502.00,0.4688
1501.00,0.4605
1500.00,0.4536
1499.00,0.4484
1498.00,0.4455
1497.00,0.4452
1496.00,0.4478
1495.00,0.4517
1494.00,0.4555
1493.00,0.4594
1492.00,0.4647
1491.00,0.4731
1490.00,0.4869
1489.00,0.5049
1488.00,0.5231
1487.00,0.5405
1486.00,0.5589
1485.00,0.5783
1484.00,0.5990
1483.00,0.6230
1482.00,0.6534
1481.00,0.6886
1480.00,0.7211
1479.00,0.7458
1478.00,0.7639
1477.00,0.7762
1476.00,0.7816
1475.00,0.7818
1474.00,0.7811
1473.00,0.7796
1472.00,0.7758
1471.00,0.7727
1470.00,0.7709
1469.00,0.7672
1468.00,0.7605
1467.00,0.7510
1466.00,0.7383
1465.00,0.7205
1464.00,0.7016
1463.00,0.6890
1462.00,0.6826
1461.00,0.6781
1460.00,0.6721
1459.00,0.6634
1458.00,0.6468
1457.00,0.6156
1456.00,0.5866
1455.00,0.5718
1454.00,0.5627
1453.00,0.5532
1452.00,0.5427
1451.00,0.5330
1450.00,0.5247
1449.00,0.5164
1448.00,0.5069
1447.00,0.4979
1446.00,0.4901
1445.00,0.4823
1444.00,0.4738
1443.00,0.4650
1442.00,0.4568
1441.00,0.4492
1440.00,0.4426
1439.00,0.4376
1438.00,0.4339
1437.00,0.4300
1436.00,0.4259
1435.00,0.4231
1434.00,0.4212
1433.00,0.4186
1432.00,0.4148
1431.00,0.4104
1430.00,0.4057
1429.00,0.4007
1428.00,0.3962
1427.00,0.3930
1426.00,0.3907
1425.00,0.3881
1424.00,0.3851
1423.00,0.3828
1422.00,0.3815
1421.00,0.3802
1420.00,0.3785
1419.00,0.3770
1418.00,0.3762
1417.00,0.3752
1416.00,0.3741
1415.00,0.3737
1414.00,0.3736
1413.00,0.3732
1412.00,0.3725
1411.00,0.3724
1410.00,0.3727
1409.00,0.3729
1408.00,0.3731
1407.00,0.3738
1406.00,0.3753
1405.00,0.3771
1404.00,0.3791
1403.00,0.3816
1402.00,0.3841
1401.00,0.3864
1400.00,0.3891
1399.00,0.3928
1398.00,0.3966
1397.00,0.3994
1396.00,0.4016
1395.00,0.4044
1394.00,0.4073
1393.00,0.4094
1392.00,0.4109
1391.00,0.4125
1390.00,0.4144
1389.00,0.4171
1388.00,0.4216
1387.00,0.4289
1386.00,0.4366
1385.00,0.4413
1384.00,0.4420
1383.00,0.4394
1382.00,0.4348
1381.00,0.4298
1380.00,0.4258
1379.00,0.4238
1378.00,0.4231
1377.00,0.4229
1376.00,0.4228
1375.00,0.4232
1374.00,0.4239
1373.00,0.4247
1372.00,0.4256
1371.00,0.4269
1370.00,0.4287
1369.00,0.4309
1368.00,0.4336
1367.00,0.4367
1366.00,0.4399
1365.00,0.4431
1364.00,0.4471
1363.00,0.4529
1362.00,0.4601
1361.00,0.4670
1360.00,0.4733
1359.00,0.4796
1358.00,0.4859
1357.00,0.4915
1356.00,0.4956
1355.00,0.4981
1354.00,0.4984
1353.00,0.4966
1352.00,0.4932
1351.00,0.4887
1350.00,0.4832
1349.00,0.4765
1348.00,0.4691
1347.00,0.4615
1346.00,0.4539
1345.00,0.4466
1344.00,0.4399
1343.00,0.4346
1342.00,0.4300
1341.00,0.4254
1340.00,0.4201
1339.00,0.4150
1338.00,0.4116
1337.00,0.4101
1336.00,0.4103
1335.00,0.4116
1334.00,0.4131
1333.00,0.4136
1332.00,0.4127
1331.00,0.4105
1330.00,0.4075
1329.00,0.4043
1328.00,0.4013
1327.00,0.3989
1326.00,0.3968
1325.00,0.3947
1324.00,0.3925
1323.00,0.3905
1322.00,0.3887
1321.00,0.3869
1320.00,0.3852
1319.00,0.3837
1318.00,0.3823
1317.00,0.3808
1316.00,0.3790
1315.00,0.3769
1314.00,0.3743
1313.00,0.3710
1312.00,0.3671
1311.00,0.3630
1310.00,0.3587
1309.00,0.3542
1308.00,0.3494
1307.00,0.3450
1306.00,0.3411
1305.00,0.3376
1304.00,0.3346
1303.00,0.3320
1302.00,0.3301
1301.00,0.3285
1300.00,0.3272
1299.00,0.3263
1298.00,0.3257
1297.00,0.3252
1296.00,0.3247
1295.00,0.3244
1294.00,0.3242
1293.00,0.3240
1292.00,0.3238
1291.00,0.3236
1290.00,0.3236
1289.00,0.3237
1288.00,0.3241
1287.00,0.3250
1286.00,0.3264
1285.00,0.3282
1284.00,0.3302
1283.00,0.3328
1282.00,0.3359
1281.00,0.3396
1280.00,0.3439
1279.00,0.3488
1278.00,0.3544
1277.00,0.3604
1276.00,0.3666
1275.00,0.3730
1274.00,0.3793
1273.00,0.3856
1272.00,0.3924
1271.00,0.4001
1270.00,0.4090
1269.00,0.4192
1268.00,0.4307
1267.00,0.4437
1266.00,0.4579
1265.00,0.4733
1264.00,0.4900
1263.00,0.5081
1262.00,0.5267
1261.00,0.5435
1260.00,0.5555
1259.00,0.5596
1258.00,0.5550
1257.00,0.5445
1256.00,0.5324
1255.00,0.5227
1254.00,0.5179
1253.00,0.5188
1252.00,0.5252
1251.00,0.5360
1250.00,0.5498
1249.00,0.5652
1248.00,0.5812
1247.00,0.5968
1246.00,0.6101
1245.00,0.6201
1244.00,0.6259
1243.00,0.6272
1242.00,0.6241
1241.00,0.6179
1240.00,0.6104
1239.00,0.6030
1238.00,0.5965
1237.00,0.5913
1236.00,0.5878
1235.00,0.5860
1234.00,0.5856
1233.00,0.5866
1232.00,0.5895
1231.00,0.5946
1230.00,0.6018
1229.00,0.6110
1228.00,0.6220
1227.00,0.6342
1226.00,0.6465
1225.00,0.6579
1224.00,0.6674
1223.00,0.6741
1222.00,0.6776
1221.00,0.6785
1220.00,0.6778
1219.00,0.6769
1218.00,0.6767
1217.00,0.6782
1216.00,0.6826
1215.00,0.6903
1214.00,0.7010
1213.00,0.7137
1212.00,0.7269
1211.00,0.7379
1210.00,0.7440
1209.00,0.7441
1208.00,0.7388
1207.00,0.7295
1206.00,0.7174
1205.00,0.7047
1204.00,0.6930
1203.00,0.6833
1202.00,0.6759
1201.00,0.6712
1200.00,0.6695
1199.00,0.6705
1198.00,0.6739
1197.00,0.6796
1196.00,0.6876
1195.00,0.6971
1194.00,0.7063
1193.00,0.7135
1192.00,0.7166
1191.00,0.7143
1190.00,0.7061
1189.00,0.6932
1188.00,0.6773
1187.00,0.6601
1186.00,0.6426
1185.00,0.6257
1184.00,0.6101
1183.00,0.5962
1182.00,0.5837
1181.00,0.5727
1180.00,0.5630
1179.00,0.5547
1178.00,0.5476
1177.00,0.5413
1176.00,0.5359
1175.00,0.5312
1174.00,0.5270
1173.00,0.5233
1172.00,0.5200
1171.00,0.5173
1170.00,0.5151
1169.00,0.5134
1168.00,0.5127
1167.00,0.5136
1166.00,0.5160
1165.00,0.5188
1164.00,0.5203
1163.00,0.5192
1162.00,0.5156
1161.00,0.5109
1160.00,0.5064
1159.00,0.5025
1158.00,0.4990
1157.00,0.4957
1156.00,0.4926
1155.00,0.4898
1154.00,0.4871
1153.00,0.4844
1152.00,0.4818
1151.00,0.4794
1150.00,0.4770
1149.00,0.4747
1148.00,0.4725
1147.00,0.4705
1146.00,0.4686
1145.00,0.4668
1144.00,0.4652
1143.00,0.4637
1142.00,0.4623
1141.00,0.4610
1140.00,0.4598
1139.00,0.4590
1138.00,0.4583
1137.00,0.4576
1136.00,0.4568
1135.00,0.4561
1134.00,0.4554
1133.00,0.4546
1132.00,0.4539
1131.00,0.4534
1130.00,0.4528
1129.00,0.4522
1128.00,0.4516
1127.00,0.4514
1126.00,0.4515
1125.00,0.4519
1124.00,0.4525
1123.00,0.4534
1122.00,0.4544
1121.00,0.4553
1120.00,0.4562
1119.00,0.4569
1118.00,0.4572
1117.00,0.4566
1116.00,0.4552
1115.00,0.4531
1114.00,0.4505
1113.00,0.4475
1112.00,0.4444
1111.00,0.4418
1110.00,0.4396
1109.00,0.4380
1108.00,0.4375
1107.00,0.4386
1106.00,0.4409
1105.00,0.4440
1104.00,0.4482
1103.00,0.4540
1102.00,0.4621
1101.00,0.4731
1100.00,0.4885
1099.00,0.5086
1098.00,0.5298
1097.00,0.5435
1096.00,0.5424
1095.00,0.5273
1094.00,0.5062
1093.00,0.4868
1092.00,0.4724
1091.00,0.4626
1090.00,0.4558
1089.00,0.4509
1088.00,0.4472
1087.00,0.4443
1086.00,0.4420
1085.00,0.4401
1084.00,0.4386
1083.00,0.4374
1082.00,0.4364
1081.00,0.4355
1080.00,0.4346
1079.00,0.4337
1078.00,0.4330
1077.00,0.4325
1076.00,0.4319
1075.00,0.4313
1074.00,0.4305
1073.00,0.4297
1072.00,0.4289
1071.00,0.4284
1070.00,0.4279
1069.00,0.4275
1068.00,0.4271
1067.00,0.4265
1066.00,0.4259
1065.00,0.4253
1064.00,0.4249
1063.00,0.4245
1062.00,0.4242
1061.00,0.4237
1060.00,0.4231
1059.00,0.4225
1058.00,0.4219
1057.00,0.4213
1056.00,0.4208
1055.00,0.4202
1054.00,0.4195
1053.00,0.4186
1052.00,0.4178
1051.00,0.4171
1050.00,0.4165
1049.00,0.4160
1048.00,0.4152
1047.00,0.4144
1046.00,0.4136
1045.00,0.4128
1044.00,0.4122
1043.00,0.4117
1042.00,0.4113
1041.00,0.4108
1040.00,0.4101
1039.00,0.4095
1038.00,0.4088
1037.00,0.4082
1036.00,0.4075
1035.00,0.4069
1034.00,0.4061
1033.00,0.4052
1032.00,0.4041
1031.00,0.4032
1030.00,0.4024
1029.00,0.4015
1028.00,0.4007
1027.00,0.3998
1026.00,0.3988
1025.00,0.3979
1024.00,0.3971
1023.00,0.3964
1022.00,0.3957
1021.00,0.3949
1020.00,0.3939
1019.00,0.3930
1018.00,0.3921
1017.00,0.3912
1016.00,0.3901
1015.00,0.3891
1014.00,0.3888
1013.00,0.3905
1012.00,0.3954
1011.00,0.4035
1010.00,0.4119
1009.00,0.4164
1008.00,0.4147
1007.00,0.4082
1006.00,0.4002
1005.00,0.3937
1004.00,0.3894
1003.00,0.3866
1002.00,0.3843
1001.00,0.3818
1000.00,0.3792
999.00,0.3766
998.00,0.3742
997.00,0.3719
996.00,0.3696
995.00,0.3673
994.00,0.3650
993.00,0.3625
992.00,0.3599
991.00,0.3572
990.00,0.3545
989.00,0.3517
988.00,0.3489
987.00,0.3459
986.00,0.3427
985.00,0.3394
984.00,0.3361
983.00,0.3327
982.00,0.3295
981.00,0.3261
980.00,0.3226
979.00,0.3191
978.00,0.3158
977.00,0.3125
976.00,0.3095
975.00,0.3065
974.00,0.3036
973.00,0.3009
972.00,0.2982
971.00,0.2959
970.00,0.2939
969.00,0.2922
968.00,0.2905
967.00,0.2892
966.00,0.2884
965.00,0.2880
964.00,0.2879
963.00,0.2883
962.00,0.2890
961.00,0.2899
960.00,0.2909
959.00,0.2921
958.00,0.2935
957.00,0.2948
956.00,0.2962
955.00,0.2974
954.00,0.2986
953.00,0.2997
952.00,0.3007
951.00,0.3017
950.00,0.3028
949.00,0.3039
948.00,0.3047
947.00,0.3053
946.00,0.3057
945.00,0.3059
944.00,0.3061
943.00,0.3068
942.00,0.3080
941.00,0.3091
940.00,0.3091
939.00,0.3076
938.00,0.3048
937.00,0.3013
936.00,0.2977
935.00,0.2945
934.00,0.2918
933.00,0.2895
932.00,0.2876
931.00,0.2862
930.00,0.2850
929.00,0.2839
928.00,0.2825
927.00,0.2810
926.00,0.2796
925.00,0.2784
924.00,0.2776
923.00,0.2774
922.00,0.2773
921.00,0.2769
920.00,0.2755
919.00,0.2732
918.00,0.2703
917.00,0.2672
916.00,0.2645
915.00,0.2624
914.00,0.2606
913.00,0.2591
912.00,0.2576
911.00,0.2563
910.00,0.2551
909.00,0.2541
908.00,0.2530
907.00,0.2520
906.00,0.2512
905.00,0.2504
904.00,0.2496
903.00,0.2491
902.00,0.2487
901.00,0.2483
900.00,0.2479
899.00,0.2476
898.00,0.2474
897.00,0.2474
896.00,0.2475
895.00,0.2478
894.00,0.2482
893.00,0.2485
892.00,0.2485
891.00,0.2484
890.00,0.2480
889.00,0.2473
888.00,0.2461
887.00,0.2445
886.00,0.2426
885.00,0.2402
884.00,0.2376
883.00,0.2348
882.00,0.2320
881.00,0.2291
880.00,0.2262
879.00,0.2234
878.00,0.2209
877.00,0.2186
876.00,0.2165
875.00,0.2147
874.00,0.2131
873.00,0.2114
872.00,0.2097
871.00,0.2081
870.00,0.2066
869.00,0.2054
868.00,0.2044
867.00,0.2037
866.00,0.2033
865.00,0.2030
864.00,0.2030
863.00,0.2032
862.00,0.2039
861.00,0.2048
860.00,0.2061
859.00,0.2077
858.00,0.2099
857.00,0.2123
856.00,0.2148
855.00,0.2175
854.00,0.2200
853.00,0.2222
852.00,0.2236
851.00,0.2247
850.00,0.2260
849.00,0.2285
848.00,0.2325
847.00,0.2383
846.00,0.2458
845.00,0.2550
844.00,0.2661
843.00,0.2795
842.00,0.2954
841.00,0.3139
840.00,0.3348
839.00,0.3574
838.00,0.3808
837.00,0.4043
836.00,0.4277
835.00,0.4511
834.00,0.4743
833.00,0.4961
832.00,0.5150
831.00,0.5296
830.00,0.5395
829.00,0.5461
828.00,0.5497
827.00,0.5477
826.00,0.5355
825.00,0.5113
824.00,0.4786
823.00,0.4438
822.00,0.4123
821.00,0.3862
820.00,0.3657
819.00,0.3498
818.00,0.3377
817.00,0.3287
816.00,0.3221
815.00,0.3175
814.00,0.3146
813.00,0.3130
812.00,0.3129
811.00,0.3146
810.00,0.3179
809.00,0.3212
808.00,0.3223
807.00,0.3197
806.00,0.3142
805.00,0.3077
804.00,0.3021
803.00,0.2978
802.00,0.2945
801.00,0.2917
800.00,0.2896
799.00,0.2884
798.00,0.2880
797.00,0.2880
796.00,0.2881
795.00,0.2884
794.00,0.2891
793.00,0.2901
792.00,0.2916
791.00,0.2934
790.00,0.2954
789.00,0.2977
788.00,0.3001
787.00,0.3030
786.00,0.3062
785.00,0.3096
784.00,0.3133
783.00,0.3172
782.00,0.3213
781.00,0.3256
780.00,0.3302
779.00,0.3351
778.00,0.3404
777.00,0.3462
776.00,0.3526
775.00,0.3600
774.00,0.3687
773.00,0.3788
772.00,0.3910
771.00,0.4057
770.00,0.4232
769.00,0.4429
768.00,0.4639
767.00,0.4846
766.00,0.5039
765.00,0.5215
764.00,0.5386
763.00,0.5569
762.00,0.5775
761.00,0.5998
760.00,0.6200
759.00,0.6309
758.00,0.6247
757.00,0.5993
756.00,0.5612
755.00,0.5203
754.00,0.4834
753.00,0.4532
752.00,0.4296
751.00,0.4115
750.00,0.3977
749.00,0.3872
748.00,0.3792
747.00,0.3730
746.00,0.3682
745.00,0.3643
744.00,0.3611
743.00,0.3584
742.00,0.3559
741.00,0.3537
740.00,0.3517
739.00,0.3499
738.00,0.3482
737.00,0.3463
736.00,0.3443
735.00,0.3423
734.00,0.3405
733.00,0.3387
732.00,0.3369
731.00,0.3351
730.00,0.3333
729.00,0.3317
728.00,0.3301
727.00,0.3287
726.00,0.3276
725.00,0.3265
724.00,0.3254
723.00,0.3245
722.00,0.3238
721.00,0.3231
720.00,0.3227
719.00,0.3225
718.00,0.3225
717.00,0.3226
716.00,0.3227
715.00,0.3230
714.00,0.3235
713.00,0.3242
712.00,0.3250
711.00,0.3259
710.00,0.3267
709.00,0.3274
708.00,0.3281
707.00,0.3290
706.00,0.3311
705.00,0.3352
704.00,0.3418
703.00,0.3496
702.00,0.3559
701.00,0.3585
700.00,0.3574
699.00,0.3545
698.00,0.3519
697.00,0.3502
696.00,0.3493
695.00,0.3489
694.00,0.3489
693.00,0.3489
692.00,0.3489
691.00,0.3490
690.00,0.3492
689.00,0.3493
688.00,0.3493
687.00,0.3494
686.00,0.3495
685.00,0.3495
684.00,0.3493
683.00,0.3492
682.00,0.3491
681.00,0.3489
680.00,0.3486
679.00,0.3482
678.00,0.3480
677.00,0.3478
676.00,0.3474
675.00,0.3471
674.00,0.3468
673.00,0.3466
672.00,0.3462
671.00,0.3459
670.00,0.3456
669.00,0.3456
668.00,0.3461
667.00,0.3467
666.00,0.3466
665.00,0.3463
664.00,0.3461
663.00,0.3459
662.00,0.3458
661.00,0.3456
660.00,0.3454
659.00,0.3452
658.00,0.3451
657.00,0.3448
656.00,0.3443
655.00,0.3439
654.00,0.3440
653.00,0.3446
652.00,0.3462
651.00,0.3486
650.00,0.3516
649.00,0.3543
648.00,0.3566
647.00,0.3587
646.00,0.3609
645.00,0.3632
644.00,0.3652
643.00,0.3667
642.00,0.3677
641.00,0.3687
640.00,0.3699
639.00,0.3713
638.00,0.3727
637.00,0.3739
636.00,0.3752
635.00,0.3769
634.00,0.3790
633.00,0.3816
632.00,0.3844
631.00,0.3874
630.00,0.3905
629.00,0.3937
628.00,0.3971
627.00,0.4007
626.00,0.4044
625.00,0.4083
624.00,0.4121
623.00,0.4157
622.00,0.4192
621.00,0.4225
620.00,0.4257
619.00,0.4287
618.00,0.4313
617.00,0.4336
616.00,0.4356
615.00,0.4372
614.00,0.4386
613.00,0.4396
612.00,0.4401
611.00,0.4400
610.00,0.4392
609.00,0.4380
608.00,0.4367
607.00,0.4353
606.00,0.4336
605.00,0.4315
604.00,0.4292
603.00,0.4267
602.00,0.4236
601.00,0.4199
600.00,0.4158
599.00,0.4119
598.00,0.4084
597.00,0.4051
596.00,0.4020
595.00,0.3990
594.00,0.3961
593.00,0.3932
592.00,0.3903
591.00,0.3874
590.00,0.3848
589.00,0.3823
588.00,0.3798
587.00,0.3774
586.00,0.3751
585.00,0.3729
584.00,0.3706
583.00,0.3683
582.00,0.3662
581.00,0.3643
580.00,0.3625
579.00,0.3610
578.00,0.3598
577.00,0.3587
576.00,0.3576
575.00,0.3564
574.00,0.3553
573.00,0.3542
572.00,0.3530
571.00,0.3520
570.00,0.3512
569.00,0.3503
568.00,0.3494
567.00,0.3485
566.00,0.3478
565.00,0.3470
564.00,0.3460
563.00,0.3450
562.00,0.3441
561.00,0.3431
560.00,0.3421
559.00,0.3413
558.00,0.3407
557.00,0.3402
556.00,0.3394
555.00,0.3385
554.00,0.3375
553.00,0.3366
552.00,0.3360
551.00,0.3356
550.00,0.3352
549.00,0.3346
548.00,0.3336
547.00,0.3327
546.00,0.3321
545.00,0.3316
544.00,0.3311
543.00,0.3305
542.00,0.3297
541.00,0.3289
540.00,0.3280
539.00,0.3272
538.00,0.3266
537.00,0.3259
536.00,0.3250
535.00,0.3243
534.00,0.3239
533.00,0.3237
532.00,0.3240
531.00,0.3257
530.00,0.3298
529.00,0.3373
528.00,0.3490
527.00,0.3651
526.00,0.3824
525.00,0.3953
524.00,0.4015
523.00,0.4042
522.00,0.4078
521.00,0.4146
520.00,0.4255
519.00,0.4398
518.00,0.4537
517.00,0.4598
516.00,0.4528
515.00,0.4354
514.00,0.4150
513.00,0.3972
512.00,0.3836
511.00,0.3738
510.00,0.3666
509.00,0.3610
508.00,0.3565
507.00,0.3527
506.00,0.3496
505.00,0.3471
504.00,0.3450
503.00,0.3432
502.00,0.3416
501.00,0.3401
500.00,0.3387
499.00,0.3375
498.00,0.3366
497.00,0.3359
496.00,0.3355
495.00,0.3354
494.00,0.3357
493.00,0.3361
492.00,0.3365
491.00,0.3368
490.00,0.3374
489.00,0.3381
488.00,0.3387
487.00,0.3391
486.00,0.3392
485.00,0.3386
484.00,0.3374
483.00,0.3360
482.00,0.3351
481.00,0.3347
480.00,0.3349
479.00,0.3357
478.00,0.3368
477.00,0.3377
476.00,0.3380
475.00,0.3379
474.00,0.3378
473.00,0.3376
472.00,0.3374
471.00,0.3373
470.00,0.3376
469.00,0.3383
468.00,0.3391
467.00,0.3400
466.00,0.3406
465.00,0.3405
464.00,0.3400
463.00,0.3395
462.00,0.3390
461.00,0.3382
460.00,0.3371
459.00,0.3358
458.00,0.3346
457.00,0.3330
456.00,0.3312
455.00,0.3293
454.00,0.3276
453.00,0.3258
452.00,0.3239
451.00,0.3222
450.00,0.3211
449.00,0.3201
448.00,0.3189
447.00,0.3176
446.00,0.3164
445.00,0.3152
444.00,0.3139
443.00,0.3127
442.00,0.3120
441.00,0.3117
440.00,0.3114
439.00,0.3114
438.00,0.3115
437.00,0.3114
436.00,0.3109
435.00,0.3102
434.00,0.3100
433.00,0.3101
432.00,0.3100
431.00,0.3096
430.00,0.3093
429.00,0.3089
428.00,0.3086
427.00,0.3085
426.00,0.3084
425.00,0.3080
424.00,0.3077
423.00,0.3084
422.00,0.3103
421.00,0.3125
420.00,0.3148
419.00,0.3189
418.00,0.3240
417.00,0.3270
416.00,0.3286
415.00,0.3302
414.00,0.3319
413.00,0.3332
412.00,0.3342
411.00,0.3356
410.00,0.3369
409.00,0.3369
408.00,0.3350
407.00,0.3324
406.00,0.3303
405.00,0.3285
404.00,0.3265
403.00,0.3249
402.00,0.3242
401.00,0.3238
400.00,0.3222
