wavelength,value
4000.00,0.7112
3999.00,0.7110
3998.00,0.7107
3997.00,0.7104
3996.00,0.7101
3995.00,0.7098
3994.00,0.7096
3993.00,0.7095
3992.00,0.7094
3991.00,0.7092
3990.00,0.7090
3989.00,0.7087
3988.00,0.7085
3987.00,0.7084
3986.00,0.7084
3985.00,0.7084
3984.00,0.7083
3983.00,0.7079
3982.00,0.7075
3981.00,0.7069
3980.00,0.7066
3979.00,0.7064
3978.00,0.7064
3977.00,0.7063
3976.00,0.7061
3975.00,0.7058
3974.00,0.7055
3973.00,0.7052
3972.00,0.7049
3971.00,0.7045
3970.00,0.7043
3969.00,0.7040
3968.00,0.7037
3967.00,0.7034
3966.00,0.7030
3965.00,0.7028
3964.00,0.7025
3963.00,0.7023
3962.00,0.7021
3961.00,0.7019
3960.00,0.7016
3959.00,0.7012
3958.00,0.7010
3957.00,0.7009
3956.00,0.7009
3955.00,0.7009
3954.00,0.7008
3953.00,0.7007
3952.00,0.7005
3951.00,0.7002
3950.00,0.6999
3949.00,0.6997
3948.00,0.6994
3947.00,0.6992
3946.00,0.6989
3945.00,0.6985
3944.00,0.6982
3943.00,0.6981
3942.00,0.6980
3941.00,0.6980
3940.00,0.6978
3939.00,0.6976
3938.00,0.6975
3937.00,0.6973
3936.00,0.6972
3935.00,0.6971
3934.00,0.6969
3933.00,0.6966
3932.00,0.6961
3931.00,0.6956
3930.00,0.6952
3929.00,0.6948
3928.00,0.6943
3927.00,0.6940
3926.00,0.6938
3925.00,0.6937
3924.00,0.6933
3923.00,0.6930
3922.00,0.6926
3921.00,0.6923
3920.00,0.6919
3919.00,0.6913
3918.00,0.6908
3917.00,0.6905
3916.00,0.6903
3915.00,0.6901
3914.00,0.6899
3913.00,0.6897
3912.00,0.6893
3911.00,0.6889
3910.00,0.6884
3909.00,0.6880
3908.00,0.6876
3907.00,0.6873
3906.00,0.6870
3905.00,0.6864
3904.00,0.6854
3903.00,0.6845
3902.00,0.6840
3901.00,0.6840
3900.00,0.6841
3899.00,0.6842
3898.00,0.6840
3897.00,0.6837
3896.00,0.6834
3895.00,0.6832
3894.00,0.6832
3893.00,0.6832
3892.00,0.6831
3891.00,0.6829
3890.00,0.6824
3889.00,0.6819
3888.00,0.6817
3887.00,0.6819
3886.00,0.6823
3885.00,0.6823
3884.00,0.6817
3883.00,0.6808
3882.00,0.6801
3881.00,0.6796
3880.00,0.6791
3879.00,0.6785
3878.00,0.6780
3877.00,0.6776
3876.00,0.6774
3875.00,0.6771
3874.00,0.6767
3873.00,0.6761
3872.00,0.6756
3871.00,0.6754
3870.00,0.6752
3869.00,0.6748
3868.00,0.6744
3867.00,0.6742
3866.00,0.6742
3865.00,0.6740
3864.00,0.6736
3863.00,0.6733
3862.00,0.6730
3861.00,0.6726
3860.00,0.6722
3859.00,0.6717
3858.00,0.6712
3857.00,0.6707
3856.00,0.6702
3855.00,0.6696
3854.00,0.6688
3853.00,0.6683
3852.00,0.6689
3851.00,0.6693
3850.00,0.6693
3849.00,0.6693
3848.00,0.6692
3847.00,0.6693
3846.00,0.6694
3845.00,0.6693
3844.00,0.6689
3843.00,0.6681
3842.00,0.6672
3841.00,0.6664
3840.00,0.6658
3839.00,0.6659
3838.00,0.6665
3837.00,0.6671
3836.00,0.6672
3835.00,0.6667
3834.00,0.6661
3833.00,0.6655
3832.00,0.6651
3831.00,0.6647
3830.00,0.6641
3829.00,0.6638
3828.00,0.6636
3827.00,0.6637
3826.00,0.6636
3825.00,0.6631
3824.00,0.6625
3823.00,0.6621
3822.00,0.6620
3821.00,0.6621
3820.00,0.6622
3819.00,0.6620
3818.00,0.6619
3817.00,0.6621
3816.00,0.6621
3815.00,0.6616
3814.00,0.6609
3813.00,0.6603
3812.00,0.6599
3811.00,0.6595
3810.00,0.6592
3809.00,0.6590
3808.00,0.6590
3807.00,0.6589
3806.00,0.6583
3805.00,0.6577
3804.00,0.6573
3803.00,0.6572
3802.00,0.6573
3801.00,0.6572
3800.00,0.6567
3799.00,0.6561
3798.00,0.6559
3797.00,0.6559
3796.00,0.6558
3795.00,0.6555
3794.00,0.6552
3793.00,0.6549
3792.00,0.6548
3791.00,0.6546
3790.00,0.6544
3789.00,0.6541
3788.00,0.6536
3787.00,0.6532
3786.00,0.6529
3785.00,0.6525
3784.00,0.6521
3783.00,0.6518
3782.00,0.6518
3781.00,0.6521
3780.00,0.6526
3779.00,0.6527
3778.00,0.6522
3777.00,0.6514
3776.00,0.6507
3775.00,0.6502
3774.00,0.6498
3773.00,0.6494
3772.00,0.6493
3771.00,0.6493
3770.00,0.6492
3769.00,0.6488
3768.00,0.6484
3767.00,0.6481
3766.00,0.6479
3765.00,0.6476
3764.00,0.6472
3763.00,0.6468
3762.00,0.6466
3761.00,0.6465
3760.00,0.6463
3759.00,0.6460
3758.00,0.6457
3757.00,0.6453
3756.00,0.6450
3755.00,0.6446
3754.00,0.6442
3753.00,0.6436
3752.00,0.6425
3751.00,0.6413
3750.00,0.6411
3749.00,0.6414
3748.00,0.6417
3747.00,0.6419
3746.00,0.6423
3745.00,0.6428
3744.00,0.6431
3743.00,0.6431
3742.00,0.6430
3741.00,0.6430
3740.00,0.6430
3739.00,0.6431
3738.00,0.6432
3737.00,0.6432
3736.00,0.6428
3735.00,0.6422
3734.00,0.6418
3733.00,0.6414
3732.00,0.6409
3731.00,0.6403
3730.00,0.6396
3729.00,0.6390
3728.00,0.6386
3727.00,0.6384
3726.00,0.6381
3725.00,0.6379
3724.00,0.6379
3723.00,0.6380
3722.00,0.6382
3721.00,0.6384
3720.00,0.6384
3719.00,0.6385
3718.00,0.6386
3717.00,0.6385
3716.00,0.6382
3715.00,0.6380
3714.00,0.6379
3713.00,0.6377
3712.00,0.6374
3711.00,0.6374
3710.00,0.6375
3709.00,0.6376
3708.00,0.6374
3707.00,0.6372
3706.00,0.6369
3705.00,0.6367
3704.00,0.6367
3703.00,0.6367
3702.00,0.6368
3701.00,0.6367
3700.00,0.6365
3699.00,0.6365
3698.00,0.6366
3697.00,0.6369
3696.00,0.6370
3695.00,0.6369
3694.00,0.6368
3693.00,0.6369
3692.00,0.6372
3691.00,0.6379
3690.00,0.6390
3689.00,0.6399
3688.00,0.6399
3687.00,0.6391
3686.00,0.6382
3685.00,0.6375
3684.00,0.6372
3683.00,0.6371
3682.00,0.6371
3681.00,0.6372
3680.00,0.6374
3679.00,0.6374
3678.00,0.6373
3677.00,0.6372
3676.00,0.6371
3675.00,0.6374
3674.00,0.6375
3673.00,0.6373
3672.00,0.6372
3671.00,0.6370
3670.00,0.6368
3669.00,0.6367
3668.00,0.6367
3667.00,0.6367
3666.00,0.6367
3665.00,0.6367
3664.00,0.6368
3663.00,0.6371
3662.00,0.6376
3661.00,0.6382
3660.00,0.6387
3659.00,0.6389
3658.00,0.6391
3657.00,0.6390
3656.00,0.6388
3655.00,0.6385
3654.00,0.6383
3653.00,0.6386
3652.00,0.6393
3651.00,0.6401
3650.00,0.6406
3649.00,0.6405
3648.00,0.6405
3647.00,0.6408
3646.00,0.6412
3645.00,0.6415
3644.00,0.6418
3643.00,0.6422
3642.00,0.6427
3641.00,0.6431
3640.00,0.6436
3639.00,0.6441
3638.00,0.6445
3637.00,0.6447
3636.00,0.6450
3635.00,0.6454
3634.00,0.6459
3633.00,0.6463
3632.00,0.6466
3631.00,0.6467
3630.00,0.6469
3629.00,0.6475
3628.00,0.6490
3627.00,0.6505
3626.00,0.6517
3625.00,0.6526
3624.00,0.6535
3623.00,0.6545
3622.00,0.6554
3621.00,0.6563
3620.00,0.6571
3619.00,0.6577
3618.00,0.6584
3617.00,0.6593
3616.00,0.6604
3615.00,0.6615
3614.00,0.6625
3613.00,0.6633
3612.00,0.6641
3611.00,0.6649
3610.00,0.6657
3609.00,0.6667
3608.00,0.6679
3607.00,0.6695
3606.00,0.6710
3605.00,0.6724
3604.00,0.6736
3603.00,0.6748
3602.00,0.6760
3601.00,0.6774
3600.00,0.6789
3599.00,0.6801
3598.00,0.6810
3597.00,0.6816
3596.00,0.6824
3595.00,0.6838
3594.00,0.6856
3593.00,0.6874
3592.00,0.6890
3591.00,0.6902
3590.00,0.6912
3589.00,0.6924
3588.00,0.6943
3587.00,0.6972
3586.00,0.6999
3585.00,0.7018
3584.00,0.7031
3583.00,0.7043
3582.00,0.7055
3581.00,0.7066
3580.00,0.7077
3579.00,0.7089
3578.00,0.7101
3577.00,0.7116
3576.00,0.7132
3575.00,0.7150
3574.00,0.7168
3573.00,0.7186
3572.00,0.7203
3571.00,0.7219
3570.00,0.7234
3569.00,0.7244
3568.00,0.7252
3567.00,0.7264
3566.00,0.7287
3565.00,0.7315
3564.00,0.7341
3563.00,0.7366
3562.00,0.7388
3561.00,0.7409
3560.00,0.7428
3559.00,0.7445
3558.00,0.7462
3557.00,0.7476
3556.00,0.7488
3555.00,0.7501
3554.00,0.7516
3553.00,0.7536
3552.00,0.7558
3551.00,0.7575
3550.00,0.7586
3549.00,0.7593
3548.00,0.7599
3547.00,0.7608
3546.00,0.7617
3545.00,0.7622
3544.00,0.7620
3543.00,0.7611
3542.00,0.7598
3541.00,0.7584
3540.00,0.7570
3539.00,0.7558
3538.00,0.7550
3537.00,0.7545
3536.00,0.7540
3535.00,0.7533
3534.00,0.7527
3533.00,0.7522
3532.00,0.7518
3531.00,0.7517
3530.00,0.7518
3529.00,0.7524
3528.00,0.7534
3527.00,0.7548
3526.00,0.7568
3525.00,0.7590
3524.00,0.7611
3523.00,0.7629
3522.00,0.7641
3521.00,0.7650
3520.00,0.7660
3519.00,0.7676
3518.00,0.7697
3517.00,0.7721
3516.00,0.7746
3515.00,0.7773
3514.00,0.7800
3513.00,0.7824
3512.00,0.7846
3511.00,0.7866
3510.00,0.7888
3509.00,0.7914
3508.00,0.7942
3507.00,0.7972
3506.00,0.8003
3505.00,0.8038
3504.00,0.8080
3503.00,0.8125
3502.00,0.8166
3501.00,0.8198
3500.00,0.8225
3499.00,0.8254
3498.00,0.8286
3497.00,0.8321
3496.00,0.8355
3495.00,0.8388
3494.00,0.8419
3493.00,0.8449
3492.00,0.8478
3491.00,0.8508
3490.00,0.8539
3489.00,0.8572
3488.00,0.8608
3487.00,0.8640
3486.00,0.8667
3485.00,0.8687
3484.00,0.8705
3483.00,0.8726
3482.00,0.8754
3481.00,0.8785
3480.00,0.8812
3479.00,0.8830
3478.00,0.8842
3477.00,0.8850
3476.00,0.8859
3475.00,0.8869
3474.00,0.8881
3473.00,0.8894
3472.00,0.8910
3471.00,0.8927
3470.00,0.8945
3469.00,0.8961
3468.00,0.8972
3467.00,0.8978
3466.00,0.8979
3465.00,0.8978
3464.00,0.8976
3463.00,0.8977
3462.00,0.8981
3461.00,0.8989
3460.00,0.8996
3459.00,0.8999
3458.00,0.8998
3457.00,0.8996
3456.00,0.8996
3455.00,0.8998
3454.00,0.9002
3453.00,0.9005
3452.00,0.9010
3451.00,0.9016
3450.00,0.9024
3449.00,0.9036
3448.00,0.9050
3447.00,0.9065
3446.00,0.9078
3445.00,0.9088
3444.00,0.9099
3443.00,0.9112
3442.00,0.9131
3441.00,0.9154
3440.00,0.9182
3439.00,0.9216
3438.00,0.9255
3437.00,0.9296
3436.00,0.9335
3435.00,0.9371
3434.00,0.9405
3433.00,0.9439
3432.00,0.9478
3431.00,0.9521
3430.00,0.9567
3429.00,0.9611
3428.00,0.9652
3427.00,0.9692
3426.00,0.9733
3425.00,0.9777
3424.00,0.9823
3423.00,0.9872
3422.00,0.9926
3421.00,0.9981
3420.00,1.0034
3419.00,1.0080
3418.00,1.0120
3417.00,1.0158
3416.00,1.0198
3415.00,1.0240
3414.00,1.0280
3413.00,1.0313
3412.00,1.0335
3411.00,1.0348
3410.00,1.0356
3409.00,1.0358
3408.00,1.0353
3407.00,1.0342
3406.00,1.0331
3405.00,1.0321
3404.00,1.0316
3403.00,1.0315
3402.00,1.0313
3401.00,1.0307
3400.00,1.0295
3399.00,1.0278
3398.00,1.0258
3397.00,1.0239
3396.00,1.0223
3395.00,1.0213
3394.00,1.0208
3393.00,1.0205
3392.00,1.0200
3391.00,1.0190
3390.00,1.0175
3389.00,1.0157
3388.00,1.0139
3387.00,1.0125
3386.00,1.0114
3385.00,1.0105
3384.00,1.0099
3383.00,1.0098
3382.00,1.0102
3381.00,1.0109
3380.00,1.0114
3379.00,1.0118
3378.00,1.0120
3377.00,1.0121
3376.00,1.0122
3375.00,1.0122
3374.00,1.0123
3373.00,1.0127
3372.00,1.0136
3371.00,1.0147
3370.00,1.0158
3369.00,1.0165
3368.00,1.0169
3367.00,1.0168
3366.00,1.0163
3365.00,1.0153
3364.00,1.0142
3363.00,1.0135
3362.00,1.0136
3361.00,1.0141
3360.00,1.0143
3359.00,1.0138
3358.00,1.0130
3357.00,1.0124
3356.00,1.0122
3355.00,1.0127
3354.00,1.0137
3353.00,1.0152
3352.00,1.0171
3351.00,1.0188
3350.00,1.0199
3349.00,1.0202
3348.00,1.0198
3347.00,1.0198
3346.00,1.0205
3345.00,1.0221
3344.00,1.0241
3343.00,1.0258
3342.00,1.0273
3341.00,1.0287
3340.00,1.0304
3339.00,1.0323
3338.00,1.0341
3337.00,1.0352
3336.00,1.0355
3335.00,1.0354
3334.00,1.0354
3333.00,1.0359
3332.00,1.0367
3331.00,1.0381
3330.00,1.0402
3329.00,1.0428
3328.00,1.0460
3327.00,1.0493
3326.00,1.0522
3325.00,1.0541
3324.00,1.0552
3323.00,1.0559
3322.00,1.0566
3321.00,1.0575
3320.00,1.0583
3319.00,1.0591
3318.00,1.0602
3317.00,1.0615
3316.00,1.0629
3315.00,1.0645
3314.00,1.0661
3313.00,1.0677
3312.00,1.0695
3311.00,1.0714
3310.00,1.0735
3309.00,1.0755
3308.00,1.0770
3307.00,1.0781
3306.00,1.0790
3305.00,1.0795
3304.00,1.0795
3303.00,1.0791
3302.00,1.0788
3301.00,1.0787
3300.00,1.0789
3299.00,1.0797
3298.00,1.0814
3297.00,1.0838
3296.00,1.0863
3295.00,1.0884
3294.00,1.0903
3293.00,1.0920
3292.00,1.0934
3291.00,1.0944
3290.00,1.0950
3289.00,1.0955
3288.00,1.0961
3287.00,1.0971
3286.00,1.0988
3285.00,1.1008
3284.00,1.1029
3283.00,1.1051
3282.00,1.1073
3281.00,1.1096
3280.00,1.1119
3279.00,1.1140
3278.00,1.1163
3277.00,1.1189
3276.00,1.1216
3275.00,1.1242
3274.00,1.1266
3273.00,1.1288
3272.00,1.1308
3271.00,1.1323
3270.00,1.1333
3269.00,1.1335
3268.00,1.1332
3267.00,1.1328
3266.00,1.1327
3265.00,1.1330
3264.00,1.1335
3263.00,1.1341
3262.00,1.1345
3261.00,1.1348
3260.00,1.1349
3259.00,1.1351
3258.00,1.1356
3257.00,1.1363
3256.00,1.1368
3255.00,1.1368
3254.00,1.1361
3253.00,1.1349
3252.00,1.1337
3251.00,1.1326
3250.00,1.1321
3249.00,1.1321
3248.00,1.1326
3247.00,1.1332
3246.00,1.1334
3245.00,1.1331
3244.00,1.1323
3243.00,1.1314
3242.00,1.1308
3241.00,1.1305
3240.00,1.1302
3239.00,1.1300
3238.00,1.1300
3237.00,1.1301
3236.00,1.1305
3235.00,1.1311
3234.00,1.1316
3233.00,1.1316
3232.00,1.1306
3231.00,1.1286
3230.00,1.1261
3229.00,1.1233
3228.00,1.1206
3227.00,1.1181
3226.00,1.1157
3225.00,1.1134
3224.00,1.1111
3223.00,1.1089
3222.00,1.1071
3221.00,1.1058
3220.00,1.1044
3219.00,1.1028
3218.00,1.1009
3217.00,1.0990
3216.00,1.0972
3215.00,1.0956
3214.00,1.0939
3213.00,1.0919
3212.00,1.0895
3211.00,1.0873
3210.00,1.0857
3209.00,1.0847
3208.00,1.0837
3207.00,1.0827
3206.00,1.0815
3205.00,1.0800
3204.00,1.0783
3203.00,1.0767
3202.00,1.0753
3201.00,1.0739
3200.00,1.0724
3199.00,1.0708
3198.00,1.0694
3197.00,1.0680
3196.00,1.0667
3195.00,1.0657
3194.00,1.0650
3193.00,1.0644
3192.00,1.0635
3191.00,1.0625
3190.00,1.0612
3189.00,1.0599
3188.00,1.0583
3187.00,1.0566
3186.00,1.0552
3185.00,1.0541
3184.00,1.0530
3183.00,1.0520
3182.00,1.0509
3181.00,1.0498
3180.00,1.0486
3179.00,1.0472
3178.00,1.0458
3177.00,1.0444
3176.00,1.0430
3175.00,1.0416
3174.00,1.0403
3173.00,1.0389
3172.00,1.0376
3171.00,1.0363
3170.00,1.0349
3169.00,1.0335
3168.00,1.0320
3167.00,1.0306
3166.00,1.0292
3165.00,1.0279
3164.00,1.0264
3163.00,1.0248
3162.00,1.0232
3161.00,1.0217
3160.00,1.0203
3159.00,1.0192
3158.00,1.0182
3157.00,1.0174
3156.00,1.0166
3155.00,1.0159
3154.00,1.0153
3153.00,1.0143
3152.00,1.0126
3151.00,1.0101
3150.00,1.0072
3149.00,1.0040
3148.00,1.0010
3147.00,0.9983
3146.00,0.9960
3145.00,0.9940
3144.00,0.9921
3143.00,0.9904
3142.00,0.9892
3141.00,0.9884
3140.00,0.9876
3139.00,0.9863
3138.00,0.9842
3137.00,0.9815
3136.00,0.9784
3135.00,0.9753
3134.00,0.9726
3133.00,0.9703
3132.00,0.9683
3131.00,0.9665
3130.00,0.9646
3129.00,0.9623
3128.00,0.9594
3127.00,0.9562
3126.00,0.9531
3125.00,0.9504
3124.00,0.9480
3123.00,0.9459
3122.00,0.9440
3121.00,0.9421
3120.00,0.9399
3119.00,0.9374
3118.00,0.9347
3117.00,0.9318
3116.00,0.9289
3115.00,0.9258
3114.00,0.9227
3113.00,0.9195
3112.00,0.9164
3111.00,0.9136
3110.00,0.9112
3109.00,0.9090
3108.00,0.9066
3107.00,0.9040
3106.00,0.9014
3105.00,0.8989
3104.00,0.8968
3103.00,0.8951
3102.00,0.8938
3101.00,0.8927
3100.00,0.8916
3099.00,0.8902
3098.00,0.8884
3097.00,0.8863
3096.00,0.8843
3095.00,0.8825
3094.00,0.8813
3093.00,0.8804
3092.00,0.8793
3091.00,0.8781
3090.00,0.8766
3089.00,0.8749
3088.00,0.8732
3087.00,0.8716
3086.00,0.8703
3085.00,0.8690
3084.00,0.8676
3083.00,0.8662
3082.00,0.8647
3081.00,0.8631
3080.00,0.8614
3079.00,0.8596
3078.00,0.8578
3077.00,0.8559
3076.00,0.8539
3075.00,0.8519
3074.00,0.8499
3073.00,0.8479
3072.00,0.8459
3071.00,0.8440
3070.00,0.8423
3069.00,0.8406
3068.00,0.8390
3067.00,0.8374
3066.00,0.8358
3065.00,0.8341
3064.00,0.8323
3063.00,0.8304
3062.00,0.8285
3061.00,0.8266
3060.00,0.8247
3059.00,0.8227
3058.00,0.8206
3057.00,0.8184
3056.00,0.8160
3055.00,0.8135
3054.00,0.8113
3053.00,0.8091
3052.00,0.8071
3051.00,0.8053
3050.00,0.8034
3049.00,0.8014
3048.00,0.7992
3047.00,0.7968
3046.00,0.7944
3045.00,0.7922
3044.00,0.7900
3043.00,0.7882
3042.00,0.7873
3041.00,0.7876
3040.00,0.7896
3039.00,0.7935
3038.00,0.7986
3037.00,0.8042
3036.00,0.8091
3035.00,0.8135
3034.00,0.8182
3033.00,0.8238
3032.00,0.8302
3031.00,0.8355
3030.00,0.8380
3029.00,0.8367
3028.00,0.8318
3027.00,0.8247
3026.00,0.8166
3025.00,0.8083
3024.00,0.8006
3023.00,0.7938
3022.00,0.7879
3021.00,0.7827
3020.00,0.7780
3019.00,0.7738
3018.00,0.7701
3017.00,0.7667
3016.00,0.7636
3015.00,0.7606
3014.00,0.7578
3013.00,0.7552
3012.00,0.7526
3011.00,0.7502
3010.00,0.7479
3009.00,0.7457
3008.00,0.7434
3007.00,0.7413
3006.00,0.7393
3005.00,0.7374
3004.00,0.7356
3003.00,0.7338
3002.00,0.7322
3001.00,0.7308
3000.00,0.7293
2999.00,0.7280
2998.00,0.7268
2997.00,0.7256
2996.00,0.7244
2995.00,0.7233
2994.00,0.7224
2993.00,0.7216
2992.00,0.7206
2991.00,0.7196
2990.00,0.7187
2989.00,0.7177
2988.00,0.7167
2987.00,0.7157
2986.00,0.7147
2985.00,0.7138
2984.00,0.7127
2983.00,0.7117
2982.00,0.7108
2981.00,0.7099
2980.00,0.7090
2979.00,0.7079
2978.00,0.7069
2977.00,0.7059
2976.00,0.7050
2975.00,0.7041
2974.00,0.7032
2973.00,0.7022
2972.00,0.7011
2971.00,0.7000
2970.00,0.6990
2969.00,0.6980
2968.00,0.6969
2967.00,0.6958
2966.00,0.6947
2965.00,0.6936
2964.00,0.6924
2963.00,0.6912
2962.00,0.6900
2961.00,0.6890
2960.00,0.6880
2959.00,0.6871
2958.00,0.6862
2957.00,0.6855
2956.00,0.6846
2955.00,0.6838
2954.00,0.6829
2953.00,0.6820
2952.00,0.6811
2951.00,0.6800
2950.00,0.6790
2949.00,0.6781
2948.00,0.6771
2947.00,0.6761
2946.00,0.6752
2945.00,0.6743
2944.00,0.6733
2943.00,0.6724
2942.00,0.6715
2941.00,0.6707
2940.00,0.6699
2939.00,0.6690
2938.00,0.6681
2937.00,0.6672
2936.00,0.6662
2935.00,0.6652
2934.00,0.6642
2933.00,0.6633
2932.00,0.6624
2931.00,0.6616
2930.00,0.6607
2929.00,0.6599
2928.00,0.6590
2927.00,0.6581
2926.00,0.6573
2925.00,0.6565
2924.00,0.6557
2923.00,0.6549
2922.00,0.6543
2921.00,0.6537
2920.00,0.6531
2919.00,0.6523
2918.00,0.6516
2917.00,0.6509
2916.00,0.6502
2915.00,0.6496
2914.00,0.6489
2913.00,0.6483
2912.00,0.6476
2911.00,0.6469
2910.00,0.6461
2909.00,0.6454
2908.00,0.6444
2907.00,0.6435
2906.00,0.6425
2905.00,0.6415
2904.00,0.6405
2903.00,0.6394
2902.00,0.6382
2901.00,0.6371
2900.00,0.6359
2899.00,0.6347
2898.00,0.6338
2897.00,0.6330
2896.00,0.6323
2895.00,0.6316
2894.00,0.6308
2893.00,0.6301
2892.00,0.6295
2891.00,0.6290
2890.00,0.6285
2889.00,0.6281
2888.00,0.6277
2887.00,0.6273
2886.00,0.6270
2885.00,0.6268
2884.00,0.6266
2883.00,0.6265
2882.00,0.6263
2881.00,0.6261
2880.00,0.6258
2879.00,0.6256
2878.00,0.6254
2877.00,0.6252
2876.00,0.6251
2875.00,0.6251
2874.00,0.6251
2873.00,0.6251
2872.00,0.6251
2871.00,0.6250
2870.00,0.6250
2869.00,0.6251
2868.00,0.6253
2867.00,0.6255
2866.00,0.6257
2865.00,0.6258
2864.00,0.6259
2863.00,0.6260
2862.00,0.6261
2861.00,0.6262
2860.00,0.6261
2859.00,0.6259
2858.00,0.6256
2857.00,0.6252
2856.00,0.6247
2855.00,0.6240
2854.00,0.6234
2853.00,0.6227
2852.00,0.6220
2851.00,0.6214
2850.00,0.6210
2849.00,0.6205
2848.00,0.6200
2847.00,0.6193
2846.00,0.6185
2845.00,0.6177
2844.00,0.6170
2843.00,0.6165
2842.00,0.6163
2841.00,0.6163
2840.00,0.6163
2839.00,0.6163
2838.00,0.6163
2837.00,0.6162
2836.00,0.6161
2835.00,0.6159
2834.00,0.6158
2833.00,0.6157
2832.00,0.6155
2831.00,0.6153
2830.00,0.6149
2829.00,0.6145
2828.00,0.6139
2827.00,0.6133
2826.00,0.6125
2825.00,0.6117
2824.00,0.6107
2823.00,0.6095
2822.00,0.6083
2821.00,0.6071
2820.00,0.6058
2819.00,0.6044
2818.00,0.6030
2817.00,0.6014
2816.00,0.5999
2815.00,0.5983
2814.00,0.5969
2813.00,0.5954
2812.00,0.5939
2811.00,0.5924
2810.00,0.5907
2809.00,0.5890
2808.00,0.5872
2807.00,0.5854
2806.00,0.5837
2805.00,0.5821
2804.00,0.5806
2803.00,0.5791
2802.00,0.5777
2801.00,0.5765
2800.00,0.5754
2799.00,0.5743
2798.00,0.5732
2797.00,0.5720
2796.00,0.5708
2795.00,0.5697
2794.00,0.5688
2793.00,0.5680
2792.00,0.5673
2791.00,0.5667
2790.00,0.5661
2789.00,0.5656
2788.00,0.5649
2787.00,0.5642
2786.00,0.5636
2785.00,0.5630
2784.00,0.5626
2783.00,0.5621
2782.00,0.5617
2781.00,0.5613
2780.00,0.5609
2779.00,0.5605
2778.00,0.5601
2777.00,0.5599
2776.00,0.5597
2775.00,0.5594
2774.00,0.5592
2773.00,0.5589
2772.00,0.5584
2771.00,0.5580
2770.00,0.5576
2769.00,0.5573
2768.00,0.5571
2767.00,0.5568
2766.00,0.5565
2765.00,0.5562
2764.00,0.5559
2763.00,0.5556
2762.00,0.5555
2761.00,0.5554
2760.00,0.5554
2759.00,0.5554
2758.00,0.5555
2757.00,0.5557
2756.00,0.5560
2755.00,0.5563
2754.00,0.5567
2753.00,0.5572
2752.00,0.5578
2751.00,0.5585
2750.00,0.5594
2749.00,0.5603
2748.00,0.5610
2747.00,0.5617
2746.00,0.5623
2745.00,0.5629
2744.00,0.5634
2743.00,0.5638
2742.00,0.5642
2741.00,0.5646
2740.00,0.5649
2739.00,0.5652
2738.00,0.5655
2737.00,0.5659
2736.00,0.5662
2735.00,0.5665
2734.00,0.5667
2733.00,0.5669
2732.00,0.5671
2731.00,0.5672
2730.00,0.5674
2729.00,0.5677
2728.00,0.5680
2727.00,0.5683
2726.00,0.5686
2725.00,0.5688
2724.00,0.5689
2723.00,0.5690
2722.00,0.5689
2721.00,0.5689
2720.00,0.5688
2719.00,0.5687
2718.00,0.5686
2717.00,0.5686
2716.00,0.5685
2715.00,0.5683
2714.00,0.5682
2713.00,0.5680
2712.00,0.5677
2711.00,0.5674
2710.00,0.5671
2709.00,0.5668
2708.00,0.5665
2707.00,0.5661
2706.00,0.5658
2705.00,0.5655
2704.00,0.5651
2703.00,0.5647
2702.00,0.5642
2701.00,0.5637
2700.00,0.5632
2699.00,0.5626
2698.00,0.5619
2697.00,0.5613
2696.00,0.5606
2695.00,0.5598
2694.00,0.5591
2693.00,0.5583
2692.00,0.5575
2691.00,0.5567
2690.00,0.5558
2689.00,0.5548
2688.00,0.5538
2687.00,0.5528
2686.00,0.5518
2685.00,0.5508
2684.00,0.5496
2683.00,0.5484
2682.00,0.5472
2681.00,0.5460
2680.00,0.5448
2679.00,0.5435
2678.00,0.5422
2677.00,0.5409
2676.00,0.5395
2675.00,0.5381
2674.00,0.5368
2673.00,0.5354
2672.00,0.5339
2671.00,0.5325
2670.00,0.5311
2669.00,0.5298
2668.00,0.5285
2667.00,0.5272
2666.00,0.5259
2665.00,0.5246
2664.00,0.5234
2663.00,0.5222
2662.00,0.5211
2661.00,0.5200
2660.00,0.5190
2659.00,0.5179
2658.00,0.5170
2657.00,0.5161
2656.00,0.5152
2655.00,0.5144
2654.00,0.5137
2653.00,0.5131
2652.00,0.5125
2651.00,0.5119
2650.00,0.5115
2649.00,0.5112
2648.00,0.5108
2647.00,0.5105
2646.00,0.5102
2645.00,0.5101
2644.00,0.5099
2643.00,0.5098
2642.00,0.5098
2641.00,0.5099
2640.00,0.5100
2639.00,0.5100
2638.00,0.5102
2637.00,0.5104
2636.00,0.5106
2635.00,0.5109
2634.00,0.5112
2633.00,0.5116
2632.00,0.5120
2631.00,0.5123
2630.00,0.5127
2629.00,0.5130
2628.00,0.5132
2627.00,0.5134
2626.00,0.5137
2625.00,0.5139
2624.00,0.5141
2623.00,0.5143
2622.00,0.5145
2621.00,0.5146
2620.00,0.5148
2619.00,0.5149
2618.00,0.5151
2617.00,0.5154
2616.00,0.5156
2615.00,0.5158
2614.00,0.5159
2613.00,0.5161
2612.00,0.5161
2611.00,0.5161
2610.00,0.5161
2609.00,0.5160
2608.00,0.5160
2607.00,0.5159
2606.00,0.5159
2605.00,0.5158
2604.00,0.5158
2603.00,0.5157
2602.00,0.5157
2601.00,0.5156
2600.00,0.5154
2599.00,0.5153
2598.00,0.5151
2597.00,0.5150
2596.00,0.5148
2595.00,0.5147
2594.00,0.5146
2593.00,0.5145
2592.00,0.5143
2591.00,0.5142
2590.00,0.5141
2589.00,0.5140
2588.00,0.5138
2587.00,0.5137
2586.00,0.5135
2585.00,0.5133
2584.00,0.5132
2583.00,0.5130
2582.00,0.5128
2581.00,0.5125
2580.00,0.5123
2579.00,0.5119
2578.00,0.5116
2577.00,0.5114
2576.00,0.5111
2575.00,0.5108
2574.00,0.5105
2573.00,0.5103
2572.00,0.5100
2571.00,0.5097
2570.00,0.5094
2569.00,0.5092
2568.00,0.5090
2567.00,0.5087
2566.00,0.5085
2565.00,0.5082
2564.00,0.5078
2563.00,0.5074
2562.00,0.5070
2561.00,0.5066
2560.00,0.5060
2559.00,0.5053
2558.00,0.5045
2557.00,0.5037
2556.00,0.5028
2555.00,0.5018
2554.00,0.5007
2553.00,0.4995
2552.00,0.4984
2551.00,0.4971
2550.00,0.4959
2549.00,0.4947
2548.00,0.4934
2547.00,0.4921
2546.00,0.4907
2545.00,0.4894
2544.00,0.4881
2543.00,0.4869
2542.00,0.4856
2541.00,0.4844
2540.00,0.4832
2539.00,0.4820
2538.00,0.4808
2537.00,0.4797
2536.00,0.4785
2535.00,0.4774
2534.00,0.4765
2533.00,0.4755
2532.00,0.4747
2531.00,0.4738
2530.00,0.4731
2529.00,0.4723
2528.00,0.4717
2527.00,0.4710
2526.00,0.4705
2525.00,0.4700
2524.00,0.4695
2523.00,0.4690
2522.00,0.4685
2521.00,0.4680
2520.00,0.4675
2519.00,0.4671
2518.00,0.4666
2517.00,0.4662
2516.00,0.4658
2515.00,0.4655
2514.00,0.4652
2513.00,0.4650
2512.00,0.4648
2511.00,0.4645
2510.00,0.4643
2509.00,0.4642
2508.00,0.4641
2507.00,0.4640
2506.00,0.4640
2505.00,0.4640
2504.00,0.4640
2503.00,0.4640
2502.00,0.4640
2501.00,0.4641
2500.00,0.4642
2499.00,0.4643
2498.00,0.4644
2497.00,0.4644
2496.00,0.4645
2495.00,0.4645
2494.00,0.4646
2493.00,0.4647
2492.00,0.4647
2491.00,0.4647
2490.00,0.4646
2489.00,0.4646
2488.00,0.4646
2487.00,0.4645
2486.00,0.4644
2485.00,0.4644
2484.00,0.4644
2483.00,0.4644
2482.00,0.4644
2481.00,0.4644
2480.00,0.4644
2479.00,0.4644
2478.00,0.4645
2477.00,0.4646
2476.00,0.4646
2475.00,0.4646
2474.00,0.4646
2473.00,0.4647
2472.00,0.4647
2471.00,0.4648
2470.00,0.4648
2469.00,0.4649
2468.00,0.4650
2467.00,0.4650
2466.00,0.4650
2465.00,0.4650
2464.00,0.4649
2463.00,0.4648
2462.00,0.4647
2461.00,0.4646
2460.00,0.4645
2459.00,0.4642
2458.00,0.4638
2457.00,0.4634
2456.00,0.4630
2455.00,0.4625
2454.00,0.4621
2453.00,0.4616
2452.00,0.4611
2451.00,0.4604
2450.00,0.4597
2449.00,0.4590
2448.00,0.4582
2447.00,0.4574
2446.00,0.4566
2445.00,0.4558
2444.00,0.4549
2443.00,0.4541
2442.00,0.4532
2441.00,0.4524
2440.00,0.4516
2439.00,0.4507
2438.00,0.4500
2437.00,0.4492
2436.00,0.4485
2435.00,0.4478
2434.00,0.4470
2433.00,0.4464
2432.00,0.4456
2431.00,0.4449
2430.00,0.4443
2429.00,0.4436
2428.00,0.4429
2427.00,0.4422
2426.00,0.4415
2425.00,0.4408
2424.00,0.4400
2423.00,0.4393
2422.00,0.4386
2421.00,0.4379
2420.00,0.4372
2419.00,0.4366
2418.00,0.4360
2417.00,0.4355
2416.00,0.4350
2415.00,0.4345
2414.00,0.4340
2413.00,0.4335
2412.00,0.4330
2411.00,0.4325
2410.00,0.4319
2409.00,0.4314
2408.00,0.4308
2407.00,0.4301
2406.00,0.4295
2405.00,0.4288
2404.00,0.4281
2403.00,0.4273
2402.00,0.4265
2401.00,0.4258
2400.00,0.4250
2399.00,0.4243
2398.00,0.4235
2397.00,0.4228
2396.00,0.4220
2395.00,0.4212
2394.00,0.4205
2393.00,0.4198
2392.00,0.4192
2391.00,0.4186
2390.00,0.4181
2389.00,0.4176
2388.00,0.4170
2387.00,0.4165
2386.00,0.4159
2385.00,0.4153
2384.00,0.4146
2383.00,0.4138
2382.00,0.4130
2381.00,0.4122
2380.00,0.4114
2379.00,0.4107
2378.00,0.4101
2377.00,0.4096
2376.00,0.4091
2375.00,0.4087
2374.00,0.4084
2373.00,0.4081
2372.00,0.4079
2371.00,0.4075
2370.00,0.4071
2369.00,0.4067
2368.00,0.4063
2367.00,0.4058
2366.00,0.4052
2365.00,0.4045
2364.00,0.4036
2363.00,0.4028
2362.00,0.4023
2361.00,0.4018
2360.00,0.4012
2359.00,0.4005
2358.00,0.3999
2357.00,0.3997
2356.00,0.3994
2355.00,0.3990
2354.00,0.3986
2353.00,0.3982
2352.00,0.3978
2351.00,0.3971
2350.00,0.3964
2349.00,0.3960
2348.00,0.3956
2347.00,0.3953
2346.00,0.3946
2345.00,0.3936
2344.00,0.3927
2343.00,0.3922
2342.00,0.3920
2341.00,0.3919
2340.00,0.3918
2339.00,0.3914
2338.00,0.3910
2337.00,0.3907
2336.00,0.3904
2335.00,0.3900
2334.00,0.3895
2333.00,0.3889
2332.00,0.3882
2331.00,0.3877
2330.00,0.3873
2329.00,0.3870
2328.00,0.3868
2327.00,0.3864
2326.00,0.3862
2325.00,0.3861
2324.00,0.3859
2323.00,0.3855
2322.00,0.3851
2321.00,0.3849
2320.00,0.3849
2319.00,0.3849
2318.00,0.3850
2317.00,0.3848
2316.00,0.3845
2315.00,0.3840
2314.00,0.3835
2313.00,0.3830
2312.00,0.3825
2311.00,0.3822
2310.00,0.3819
2309.00,0.3817
2308.00,0.3816
2307.00,0.3815
2306.00,0.3814
2305.00,0.3813
2304.00,0.3811
2303.00,0.3809
2302.00,0.3807
2301.00,0.3805
2300.00,0.3802
2299.00,0.3800
2298.00,0.3798
2297.00,0.3796
2296.00,0.3794
2295.00,0.3791
2294.00,0.3789
2293.00,0.3787
2292.00,0.3785
2291.00,0.3782
2290.00,0.3780
2289.00,0.3779
2288.00,0.3777
2287.00,0.3775
2286.00,0.3774
2285.00,0.3772
2284.00,0.3770
2283.00,0.3768
2282.00,0.3765
2281.00,0.3763
2280.00,0.3760
2279.00,0.3757
2278.00,0.3753
2277.00,0.3750
2276.00,0.3747
2275.00,0.3744
2274.00,0.3742
2273.00,0.3741
2272.00,0.3740
2271.00,0.3739
2270.00,0.3736
2269.00,0.3734
2268.00,0.3730
2267.00,0.3726
2266.00,0.3721
2265.00,0.3717
2264.00,0.3713
2263.00,0.3709
2262.00,0.3705
2261.00,0.3701
2260.00,0.3696
2259.00,0.3692
2258.00,0.3687
2257.00,0.3683
2256.00,0.3679
2255.00,0.3675
2254.00,0.3671
2253.00,0.3667
2252.00,0.3664
2251.00,0.3660
2250.00,0.3657
2249.00,0.3653
2248.00,0.3650
2247.00,0.3646
2246.00,0.3642
2245.00,0.3638
2244.00,0.3635
2243.00,0.3631
2242.00,0.3628
2241.00,0.3625
2240.00,0.3622
2239.00,0.3619
2238.00,0.3616
2237.00,0.3613
2236.00,0.3609
2235.00,0.3606
2234.00,0.3603
2233.00,0.3600
2232.00,0.3597
2231.00,0.3594
2230.00,0.3591
2229.00,0.3588
2228.00,0.3585
2227.00,0.3582
2226.00,0.3580
2225.00,0.3577
2224.00,0.3574
2223.00,0.3571
2222.00,0.3568
2221.00,0.3565
2220.00,0.3562
2219.00,0.3559
2218.00,0.3557
2217.00,0.3554
2216.00,0.3551
2215.00,0.3548
2214.00,0.3544
2213.00,0.3541
2212.00,0.3538
2211.00,0.3535
2210.00,0.3532
2209.00,0.3529
2208.00,0.3527
2207.00,0.3524
2206.00,0.3521
2205.00,0.3518
2204.00,0.3515
2203.00,0.3512
2202.00,0.3509
2201.00,0.3506
2200.00,0.3503
2199.00,0.3500
2198.00,0.3497
2197.00,0.3494
2196.00,0.3492
2195.00,0.3489
2194.00,0.3486
2193.00,0.3483
2192.00,0.3480
2191.00,0.3478
2190.00,0.3475
2189.00,0.3473
2188.00,0.3471
2187.00,0.3468
2186.00,0.3466
2185.00,0.3464
2184.00,0.3462
2183.00,0.3459
2182.00,0.3457
2181.00,0.3456
2180.00,0.3456
2179.00,0.3457
2178.00,0.3459
2177.00,0.3460
2176.00,0.3460
2175.00,0.3459
2174.00,0.3456
2173.00,0.3453
2172.00,0.3449
2171.00,0.3446
2170.00,0.3444
2169.00,0.3442
2168.00,0.3440
2167.00,0.3437
2166.00,0.3433
2165.00,0.3430
2164.00,0.3426
2163.00,0.3423
2162.00,0.3420
2161.00,0.3417
2160.00,0.3415
2159.00,0.3412
2158.00,0.3409
2157.00,0.3407
2156.00,0.3405
2155.00,0.3402
2154.00,0.3399
2153.00,0.3396
2152.00,0.3394
2151.00,0.3391
2150.00,0.3388
2149.00,0.3386
2148.00,0.3383
2147.00,0.3381
2146.00,0.3378
2145.00,0.3376
2144.00,0.3374
2143.00,0.3372
2142.00,0.3370
2141.00,0.3368
2140.00,0.3366
2139.00,0.3364
2138.00,0.3361
2137.00,0.3359
2136.00,0.3358
2135.00,0.3356
2134.00,0.3354
2133.00,0.3352
2132.00,0.3350
2131.00,0.3349
2130.00,0.3348
2129.00,0.3348
2128.00,0.3347
2127.00,0.3347
2126.00,0.3346
2125.00,0.3346
2124.00,0.3346
2123.00,0.3346
2122.00,0.3345
2121.00,0.3346
2120.00,0.3346
2119.00,0.3346
2118.00,0.3346
2117.00,0.3346
2116.00,0.3346
2115.00,0.3347
2114.00,0.3347
2113.00,0.3347
2112.00,0.3347
2111.00,0.3345
2110.00,0.3343
2109.00,0.3341
2108.00,0.3339
2107.00,0.3336
2106.00,0.3333
2105.00,0.3330
2104.00,0.3328
2103.00,0.3325
2102.00,0.3322
2101.00,0.3320
2100.00,0.3318
2099.00,0.3316
2098.00,0.3314
2097.00,0.3312
2096.00,0.3309
2095.00,0.3306
2094.00,0.3304
2093.00,0.3302
2092.00,0.3300
2091.00,0.3297
2090.00,0.3295
2089.00,0.3292
2088.00,0.3290
2087.00,0.3288
2086.00,0.3285
2085.00,0.3283
2084.00,0.3281
2083.00,0.3279
2082.00,0.3277
2081.00,0.3275
2080.00,0.3274
2079.00,0.3271
2078.00,0.3268
2077.00,0.3266
2076.00,0.3264
2075.00,0.3261
2074.00,0.3258
2073.00,0.3255
2072.00,0.3252
2071.00,0.3249
2070.00,0.3246
2069.00,0.3244
2068.00,0.3241
2067.00,0.3238
2066.00,0.3235
2065.00,0.3232
2064.00,0.3229
2063.00,0.3226
2062.00,0.3223
2061.00,0.3220
2060.00,0.3217
2059.00,0.3213
2058.00,0.3209
2057.00,0.3206
2056.00,0.3204
2055.00,0.3201
2054.00,0.3199
2053.00,0.3196
2052.00,0.3194
2051.00,0.3192
2050.00,0.3189
2049.00,0.3187
2048.00,0.3185
2047.00,0.3183
2046.00,0.3180
2045.00,0.3178
2044.00,0.3176
2043.00,0.3174
2042.00,0.3172
2041.00,0.3170
2040.00,0.3169
2039.00,0.3168
2038.00,0.3168
2037.00,0.3168
2036.00,0.3168
2035.00,0.3169
2034.00,0.3169
2033.00,0.3171
2032.00,0.3174
2031.00,0.3177
2030.00,0.3180
2029.00,0.3183
2028.00,0.3186
2027.00,0.3189
2026.00,0.3191
2025.00,0.3193
2024.00,0.3195
2023.00,0.3197
2022.00,0.3198
2021.00,0.3200
2020.00,0.3202
2019.00,0.3203
2018.00,0.3204
2017.00,0.3206
2016.00,0.3207
2015.00,0.3208
2014.00,0.3207
2013.00,0.3206
2012.00,0.3203
2011.00,0.3200
2010.00,0.3195
2009.00,0.3191
2008.00,0.3186
2007.00,0.3180
2006.00,0.3175
2005.00,0.3169
2004.00,0.3163
2003.00,0.3156
2002.00,0.3150
2001.00,0.3143
2000.00,0.3136
1999.00,0.3129
1998.00,0.3123
1997.00,0.3116
1996.00,0.3109
1995.00,0.3102
1994.00,0.3094
1993.00,0.3086
1992.00,0.3078
1991.00,0.3071
1990.00,0.3065
1989.00,0.3060
1988.00,0.3054
1987.00,0.3048
1986.00,0.3042
1985.00,0.3037
1984.00,0.3032
1983.00,0.3027
1982.00,0.3022
1981.00,0.3017
1980.00,0.3011
1979.00,0.3006
1978.00,0.3000
1977.00,0.2994
1976.00,0.2989
1975.00,0.2983
1974.00,0.2977
1973.00,0.2971
1972.00,0.2965
1971.00,0.2959
1970.00,0.2953
1969.00,0.2947
1968.00,0.2940
1967.00,0.2934
1966.00,0.2928
1965.00,0.2923
1964.00,0.2918
1963.00,0.2913
1962.00,0.2908
1961.00,0.2903
1960.00,0.2897
1959.00,0.2892
1958.00,0.2887
1957.00,0.2882
1956.00,0.2877
1955.00,0.2872
1954.00,0.2868
1953.00,0.2864
1952.00,0.2860
1951.00,0.2856
1950.00,0.2852
1949.00,0.2848
1948.00,0.2845
1947.00,0.2841
1946.00,0.2838
1945.00,0.2834
1944.00,0.2830
1943.00,0.2826
1942.00,0.2824
1941.00,0.2823
1940.00,0.2823
1939.00,0.2822
1938.00,0.2821
1937.00,0.2820
1936.00,0.2818
1935.00,0.2817
1934.00,0.2815
1933.00,0.2813
1932.00,0.2812
1931.00,0.2811
1930.00,0.2809
1929.00,0.2807
1928.00,0.2805
1927.00,0.2802
1926.00,0.2798
1925.00,0.2794
1924.00,0.2789
1923.00,0.2784
1922.00,0.2780
1921.00,0.2776
1920.00,0.2772
1919.00,0.2766
1918.00,0.2759
1917.00,0.2751
1916.00,0.2744
1915.00,0.2738
1914.00,0.2731
1913.00,0.2725
1912.00,0.2719
1911.00,0.2713
1910.00,0.2707
1909.00,0.2701
1908.00,0.2696
1907.00,0.2691
1906.00,0.2687
1905.00,0.2683
1904.00,0.2679
1903.00,0.2674
1902.00,0.2669
1901.00,0.2665
1900.00,0.2662
1899.00,0.2658
1898.00,0.2653
1897.00,0.2650
1896.00,0.2647
1895.00,0.2644
1894.00,0.2641
1893.00,0.2639
1892.00,0.2636
1891.00,0.2633
1890.00,0.2631
1889.00,0.2630
1888.00,0.2631
1887.00,0.2631
1886.00,0.2631
1885.00,0.2630
1884.00,0.2630
1883.00,0.2629
1882.00,0.2630
1881.00,0.2633
1880.00,0.2640
1879.00,0.2649
1878.00,0.2660
1877.00,0.2676
1876.00,0.2695
1875.00,0.2718
1874.00,0.2746
1873.00,0.2780
1872.00,0.2814
1871.00,0.2847
1870.00,0.2874
1869.00,0.2890
1868.00,0.2891
1867.00,0.2886
1866.00,0.2884
1865.00,0.2886
1864.00,0.2892
1863.00,0.2901
1862.00,0.2915
1861.00,0.2933
1860.00,0.2955
1859.00,0.2981
1858.00,0.3013
1857.00,0.3047
1856.00,0.3073
1855.00,0.3081
1854.00,0.3065
1853.00,0.3023
1852.00,0.2965
1851.00,0.2904
1850.00,0.2849
1849.00,0.2801
1848.00,0.2762
1847.00,0.2731
1846.00,0.2709
1845.00,0.2693
1844.00,0.2681
1843.00,0.2673
1842.00,0.2670
1841.00,0.2670
1840.00,0.2670
1839.00,0.2667
1838.00,0.2662
1837.00,0.2655
1836.00,0.2645
1835.00,0.2634
1834.00,0.2621
1833.00,0.2609
1832.00,0.2597
1831.00,0.2584
1830.00,0.2571
1829.00,0.2561
1828.00,0.2553
1827.00,0.2549
1826.00,0.2544
1825.00,0.2539
1824.00,0.2534
1823.00,0.2531
1822.00,0.2528
1821.00,0.2525
1820.00,0.2522
1819.00,0.2518
1818.00,0.2514
1817.00,0.2511
1816.00,0.2507
1815.00,0.2504
1814.00,0.2500
1813.00,0.2496
1812.00,0.2492
1811.00,0.2488
1810.00,0.2484
1809.00,0.2480
1808.00,0.2478
1807.00,0.2476
1806.00,0.2473
1805.00,0.2469
1804.00,0.2466
1803.00,0.2460
1802.00,0.2455
1801.00,0.2451
1800.00,0.2449
1799.00,0.2446
1798.00,0.2444
1797.00,0.2442
1796.00,0.2441
1795.00,0.2439
1794.00,0.2436
1793.00,0.2434
1792.00,0.2431
1791.00,0.2428
1790.00,0.2426
1789.00,0.2425
1788.00,0.2426
1787.00,0.2424
1786.00,0.2421
1785.00,0.2418
1784.00,0.2415
1783.00,0.2412
1782.00,0.2408
1781.00,0.2405
1780.00,0.2403
1779.00,0.2401
1778.00,0.2399
1777.00,0.2397
1776.00,0.2395
1775.00,0.2392
1774.00,0.2389
1773.00,0.2386
1772.00,0.2384
1771.00,0.2379
1770.00,0.2375
1769.00,0.2373
1768.00,0.2373
1767.00,0.2371
1766.00,0.2369
1765.00,0.2367
1764.00,0.2366
1763.00,0.2363
1762.00,0.2360
1761.00,0.2358
1760.00,0.2357
1759.00,0.2357
1758.00,0.2359
1757.00,0.2362
1756.00,0.2367
1755.00,0.2371
1754.00,0.2373
1753.00,0.2374
1752.00,0.2374
1751.00,0.2373
1750.00,0.2372
1749.00,0.2374
1748.00,0.2377
1747.00,0.2379
1746.00,0.2379
1745.00,0.2379
1744.00,0.2380
1743.00,0.2381
1742.00,0.2382
1741.00,0.2384
1740.00,0.2388
1739.00,0.2390
1738.00,0.2389
1737.00,0.2388
1736.00,0.2386
1735.00,0.2378
1734.00,0.2358
1733.00,0.2337
1732.00,0.2325
1731.00,0.2316
1730.00,0.2308
1729.00,0.2302
1728.00,0.2299
1727.00,0.2296
1726.00,0.2293
1725.00,0.2290
1724.00,0.2287
1723.00,0.2284
1722.00,0.2282
1721.00,0.2280
1720.00,0.2278
1719.00,0.2274
1718.00,0.2270
1717.00,0.2273
1716.00,0.2275
1715.00,0.2272
1714.00,0.2268
1713.00,0.2268
1712.00,0.2270
1711.00,0.2270
1710.00,0.2268
1709.00,0.2266
1708.00,0.2264
1707.00,0.2262
1706.00,0.2260
1705.00,0.2260
1704.00,0.2262
1703.00,0.2263
1702.00,0.2263
1701.00,0.2263
1700.00,0.2266
1699.00,0.2267
1698.00,0.2266
1697.00,0.2270
1696.00,0.2276
1695.00,0.2279
1694.00,0.2279
1693.00,0.2281
1692.00,0.2284
1691.00,0.2285
1690.00,0.2286
1689.00,0.2289
1688.00,0.2294
1687.00,0.2297
1686.00,0.2295
1685.00,0.2292
1684.00,0.2298
1683.00,0.2306
1682.00,0.2312
1681.00,0.2320
1680.00,0.2328
1679.00,0.2335
1678.00,0.2339
1677.00,0.2345
1676.00,0.2352
1675.00,0.2361
1674.00,0.2367
1673.00,0.2371
1672.00,0.2376
1671.00,0.2382
1670.00,0.2389
1669.00,0.2400
1668.00,0.2412
1667.00,0.2422
1666.00,0.2430
1665.00,0.2438
1664.00,0.2449
1663.00,0.2465
1662.00,0.2483
1661.00,0.2501
1660.00,0.2519
1659.00,0.2536
1658.00,0.2552
1657.00,0.2567
1656.00,0.2579
1655.00,0.2589
1654.00,0.2607
1653.00,0.2669
1652.00,0.2730
1651.00,0.2755
1650.00,0.2765
1649.00,0.2778
1648.00,0.2812
1647.00,0.2885
1646.00,0.2967
1645.00,0.3028
1644.00,0.3081
1643.00,0.3138
1642.00,0.3202
1641.00,0.3271
1640.00,0.3334
1639.00,0.3377
1638.00,0.3398
1637.00,0.3392
1636.00,0.3342
1635.00,0.3263
1634.00,0.3206
1633.00,0.3176
1632.00,0.3155
1631.00,0.3135
1630.00,0.3118
1629.00,0.3114
1628.00,0.3128
1627.00,0.3153
1626.00,0.3179
1625.00,0.3209
1624.00,0.3257
1623.00,0.3322
1622.00,0.3382
1621.00,0.3424
1620.00,0.3454
1619.00,0.3475
1618.00,0.3479
1617.00,0.3454
1616.00,0.3404
1615.00,0.3354
1614.00,0.3312
1613.00,0.3277
1612.00,0.3242
1611.00,0.3203
1610.00,0.3154
1609.00,0.3097
1608.00,0.3032
1607.00,0.2965
1606.00,0.2901
1605.00,0.2840
1604.00,0.2781
1603.00,0.2720
1602.00,0.2663
1601.00,0.2616
1600.00,0.2579
1599.00,0.2548
1598.00,0.2522
1597.00,0.2501
1596.00,0.2482
1595.00,0.2461
1594.00,0.2441
1593.00,0.2426
1592.00,0.2414
1591.00,0.2400
1590.00,0.2389
1589.00,0.2381
1588.00,0.2374
1587.00,0.2366
1586.00,0.2359
1585.00,0.2356
1584.00,0.2354
1583.00,0.2351
1582.00,0.2349
1581.00,0.2349
1580.00,0.2350
1579.00,0.2347
1578.00,0.2345
1577.00,0.2350
1576.00,0.2357
1575.00,0.2357
1574.00,0.2358
1573.00,0.2363
1572.00,0.2367
1571.00,0.2368
1570.00,0.2370
1569.00,0.2381
1568.00,0.2394
1567.00,0.2401
1566.00,0.2408
1565.00,0.2422
1564.00,0.2438
1563.00,0.2446
1562.00,0.2450
1561.00,0.2454
1560.00,0.2458
1559.00,0.2478
1558.00,0.2513
1557.00,0.2548
1556.00,0.2575
1555.00,0.2592
1554.00,0.2611
1553.00,0.2636
1552.00,0.2660
1551.00,0.2681
1550.00,0.2712
1549.00,0.2755
1548.00,0.2794
1547.00,0.2819
1546.00,0.2842
1545.00,0.2887
1544.00,0.2956
1543.00,0.3012
1542.00,0.3053
1541.00,0.3150
1540.00,0.3339
1539.00,0.3485
1538.00,0.3574
1537.00,0.3650
1536.00,0.3719
1535.00,0.3796
1534.00,0.3928
1533.00,0.4121
1532.00,0.4268
1531.00,0.4338
1530.00,0.4389
1529.00,0.4465
1528.00,0.4580
1527.00,0.4750
1526.00,0.4999
1525.00,0.5303
1524.00,0.5587
1523.00,0.5864
1522.00,0.6333
1521.00,0.7083
1520.00,0.7638
1519.00,0.7815
1518.00,0.7832
1517.00,0.7758
1516.00,0.7568
1515.00,0.7345
1514.00,0.7148
1513.00,0.6944
1512.00,0.6695
1511.00,0.6423
1510.00,0.6183
1509.00,0.5983
1508.00,0.5707
1507.00,0.5157
1506.00,0.4716
1505.00,0.4572
1504.00,0.4499
1503.00,0.4424
1502.00,0.4342
1501.00,0.4259
1500.00,0.4186
1499.00,0.4130
1498.00,0.4094
1497.00,0.4088
1496.00,0.4113
1495.00,0.4154
1494.00,0.4194
1493.00,0.4238
1492.00,0.4296
1491.00,0.4391
1490.00,0.4560
1489.00,0.4796
1488.00,0.5033
1487.00,0.5260
1486.00,0.5502
1485.00,0.5760
1484.00,0.6035
1483.00,0.6352
1482.00,0.6757
1481.00,0.7233
1480.00,0.7673
1479.00,0.7999
1478.00,0.8229
1477.00,0.8380
1476.00,0.8439
1475.00,0.8430
1474.00,0.8419
1473.00,0.8411
1472.00,0.8371
1471.00,0.8333
1470.00,0.8314
1469.00,0.8273
1468.00,0.8187
1467.00,0.8060
1466.00,0.7888
1465.00,0.7652
1464.00,0.7405
1463.00,0.7242
1462.00,0.7163
1461.00,0.7108
1460.00,0.7034
1459.00,0.6920
1458.00,0.6711
1457.00,0.6301
1456.00,0.5911
1455.00,0.5712
1454.00,0.5591
1453.00,0.5468
1452.00,0.5333
1451.00,0.5209
1450.00,0.5105
1449.00,0.5002
1448.00,0.4885
1447.00,0.4771
1446.00,0.4676
1445.00,0.4582
1444.00,0.4476
1443.00,0.4366
1442.00,0.4262
1441.00,0.4170
1440.00,0.4092
1439.00,0.4034
1438.00,0.3993
1437.00,0.3950
1436.00,0.3899
1435.00,0.3860
1434.00,0.3829
1433.00,0.3787
1432.00,0.3723
1431.00,0.3642
1430.00,0.3549
1429.00,0.3452
1428.00,0.3365
1427.00,0.3300
1426.00,0.3247
1425.00,0.3187
1424.00,0.3117
1423.00,0.3061
1422.00,0.3025
1421.00,0.2993
1420.00,0.2950
1419.00,0.2900
1418.00,0.2859
1417.00,0.2827
1416.00,0.2802
1415.00,0.2786
1414.00,0.2774
1413.00,0.2758
1412.00,0.2739
1411.00,0.2726
1410.00,0.2721
1409.00,0.2715
1408.00,0.2710
1407.00,0.2712
1406.00,0.2725
1405.00,0.2741
1404.00,0.2762
1403.00,0.2789
1402.00,0.2819
1401.00,0.2845
1400.00,0.2873
1399.00,0.2912
1398.00,0.2952
1397.00,0.2978
1396.00,0.2994
1395.00,0.3014
1394.00,0.3034
1393.00,0.3046
1392.00,0.3051
1391.00,0.3059
1390.00,0.3069
1389.00,0.3084
1388.00,0.3116
1387.00,0.3176
1386.00,0.3243
1385.00,0.3280
1384.00,0.3277
1383.00,0.3240
1382.00,0.3184
1381.00,0.3127
1380.00,0.3085
1379.00,0.3068
1378.00,0.3069
1377.00,0.3077
1376.00,0.3088
1375.00,0.3109
1374.00,0.3142
1373.00,0.3177
1372.00,0.3211
1371.00,0.3250
1370.00,0.3298
1369.00,0.3356
1368.00,0.3423
1367.00,0.3494
1366.00,0.3562
1365.00,0.3627
1364.00,0.3703
1363.00,0.3809
1362.00,0.3937
1361.00,0.4057
1360.00,0.4161
1359.00,0.4263
1358.00,0.4365
1357.00,0.4455
1356.00,0.4525
1355.00,0.4569
1354.00,0.4581
1353.00,0.4560
1352.00,0.4517
1351.00,0.4459
1350.00,0.4387
1349.00,0.4296
1348.00,0.4193
1347.00,0.4084
1346.00,0.3973
1345.00,0.3862
1344.00,0.3762
1343.00,0.3680
1342.00,0.3611
1341.00,0.3541
1340.00,0.3463
1339.00,0.3388
1338.00,0.3337
1337.00,0.3319
1336.00,0.3329
1335.00,0.3359
1334.00,0.3393
1333.00,0.3415
1332.00,0.3412
1331.00,0.3387
1330.00,0.3347
1329.00,0.3301
1328.00,0.3259
1327.00,0.3223
1326.00,0.3192
1325.00,0.3159
1324.00,0.3124
1323.00,0.3090
1322.00,0.3060
1321.00,0.3030
1320.00,0.3002
1319.00,0.2977
1318.00,0.2956
1317.00,0.2935
1316.00,0.2911
1315.00,0.2883
1314.00,0.2849
1313.00,0.2804
1312.00,0.2749
1311.00,0.2690
1310.00,0.2628
1309.00,0.2562
1308.00,0.2492
1307.00,0.2425
1306.00,0.2364
1305.00,0.2308
1304.00,0.2256
1303.00,0.2211
1302.00,0.2171
1301.00,0.2135
1300.00,0.2102
1299.00,0.2074
1298.00,0.2050
1297.00,0.2029
1296.00,0.2009
1295.00,0.1993
1294.00,0.1982
1293.00,0.1973
1292.00,0.1966
1291.00,0.1962
1290.00,0.1962
1289.00,0.1964
1288.00,0.1969
1287.00,0.1978
1286.00,0.1994
1285.00,0.2012
1284.00,0.2035
1283.00,0.2063
1282.00,0.2099
1281.00,0.2140
1280.00,0.2188
1279.00,0.2245
1278.00,0.2313
1277.00,0.2389
1276.00,0.2469
1275.00,0.2552
1274.00,0.2636
1273.00,0.2721
1272.00,0.2817
1271.00,0.2931
1270.00,0.3067
1269.00,0.3223
1268.00,0.3399
1267.00,0.3596
1266.00,0.3809
1265.00,0.4037
1264.00,0.4281
1263.00,0.4540
1262.00,0.4798
1261.00,0.5021
1260.00,0.5162
1259.00,0.5177
1258.00,0.5061
1257.00,0.4859
1256.00,0.4642
1255.00,0.4471
1254.00,0.4385
1253.00,0.4395
1252.00,0.4493
1251.00,0.4663
1250.00,0.4881
1249.00,0.5123
1248.00,0.5373
1247.00,0.5613
1246.00,0.5819
1245.00,0.5973
1244.00,0.6064
1243.00,0.6086
1242.00,0.6044
1241.00,0.5957
1240.00,0.5853
1239.00,0.5753
1238.00,0.5667
1237.00,0.5602
1236.00,0.5561
1235.00,0.5543
1234.00,0.5545
1233.00,0.5567
1232.00,0.5614
1231.00,0.5690
1230.00,0.5794
1229.00,0.5923
1228.00,0.6078
1227.00,0.6249
1226.00,0.6419
1225.00,0.6574
1224.00,0.6702
1223.00,0.6792
1222.00,0.6836
1221.00,0.6842
1220.00,0.6831
1219.00,0.6821
1218.00,0.6821
1217.00,0.6847
1216.00,0.6917
1215.00,0.7038
1214.00,0.7201
1213.00,0.7395
1212.00,0.7598
1211.00,0.7771
1210.00,0.7874
1209.00,0.7893
1208.00,0.7840
1207.00,0.7728
1206.00,0.7578
1205.00,0.7420
1204.00,0.7279
1203.00,0.7169
1202.00,0.7091
1201.00,0.7050
1200.00,0.7051
1199.00,0.7092
1198.00,0.7168
1197.00,0.7275
1196.00,0.7414
1195.00,0.7571
1194.00,0.7720
1193.00,0.7835
1192.00,0.7895
1191.00,0.7880
1190.00,0.7782
1189.00,0.7616
1188.00,0.7410
1187.00,0.7180
1186.00,0.6938
1185.00,0.6696
1184.00,0.6467
1183.00,0.6253
1182.00,0.6055
1181.00,0.5873
1180.00,0.5710
1179.00,0.5564
1178.00,0.5431
1177.00,0.5308
1176.00,0.5196
1175.00,0.5093
1174.00,0.4998
1173.00,0.4907
1172.00,0.4822
1171.00,0.4744
1170.00,0.4673
1169.00,0.4611
1168.00,0.4568
1167.00,0.4552
1166.00,0.4562
1165.00,0.4583
1164.00,0.4591
1163.00,0.4565
1162.00,0.4504
1161.00,0.4425
1160.00,0.4348
1159.00,0.4281
1158.00,0.4221
1157.00,0.4166
1156.00,0.4116
1155.00,0.4071
1154.00,0.4029
1153.00,0.3987
1152.00,0.3948
1151.00,0.3912
1150.00,0.3877
1149.00,0.3841
1148.00,0.3807
1147.00,0.3775
1146.00,0.3743
1145.00,0.3710
1144.00,0.3677
1143.00,0.3646
1142.00,0.3617
1141.00,0.3587
1140.00,0.3557
1139.00,0.3528
1138.00,0.3501
1137.00,0.3473
1136.00,0.3445
1135.00,0.3419
1134.00,0.3395
1133.00,0.3368
1132.00,0.3341
1131.00,0.3317
1130.00,0.3296
1129.00,0.3276
1128.00,0.3259
1127.00,0.3247
1126.00,0.3240
1125.00,0.3238
1124.00,0.3242
1123.00,0.3253
1122.00,0.3269
1121.00,0.3283
1120.00,0.3296
1119.00,0.3307
1118.00,0.3311
1117.00,0.3302
1116.00,0.3280
1115.00,0.3248
1114.00,0.3206
1113.00,0.3158
1112.00,0.3107
1111.00,0.3059
1110.00,0.3018
1109.00,0.2988
1108.00,0.2976
1107.00,0.2989
1106.00,0.3023
1105.00,0.3072
1104.00,0.3137
1103.00,0.3231
1102.00,0.3360
1101.00,0.3536
1100.00,0.3779
1099.00,0.4100
1098.00,0.4450
1097.00,0.4701
1096.00,0.4720
1095.00,0.4504
1094.00,0.4182
1093.00,0.3878
1092.00,0.3647
1091.00,0.3482
1090.00,0.3364
1089.00,0.3276
1088.00,0.3205
1087.00,0.3148
1086.00,0.3099
1085.00,0.3058
1084.00,0.3022
1083.00,0.2989
1082.00,0.2960
1081.00,0.2933
1080.00,0.2908
1079.00,0.2886
1078.00,0.2865
1077.00,0.2846
1076.00,0.2826
1075.00,0.2807
1074.00,0.2789
1073.00,0.2772
1072.00,0.2756
1071.00,0.2739
1070.00,0.2724
1069.00,0.2708
1068.00,0.2693
1067.00,0.2679
1066.00,0.2666
1065.00,0.2653
1064.00,0.2638
1063.00,0.2624
1062.00,0.2612
1061.00,0.2599
1060.00,0.2586
1059.00,0.2572
1058.00,0.2559
1057.00,0.2546
1056.00,0.2532
1055.00,0.2519
1054.00,0.2508
1053.00,0.2496
1052.00,0.2484
1051.00,0.2472
1050.00,0.2460
1049.00,0.2449
1048.00,0.2437
1047.00,0.2425
1046.00,0.2415
1045.00,0.2405
1044.00,0.2393
1043.00,0.2382
1042.00,0.2372
1041.00,0.2361
1040.00,0.2350
1039.00,0.2340
1038.00,0.2331
1037.00,0.2321
1036.00,0.2310
1035.00,0.2301
1034.00,0.2292
1033.00,0.2283
1032.00,0.2272
1031.00,0.2261
1030.00,0.2251
1029.00,0.2241
1028.00,0.2230
1027.00,0.2220
1026.00,0.2210
1025.00,0.2199
1024.00,0.2187
1023.00,0.2176
1022.00,0.2167
1021.00,0.2156
1020.00,0.2143
1019.00,0.2130
1018.00,0.2118
1017.00,0.2104
1016.00,0.2088
1015.00,0.2075
1014.00,0.2074
1013.00,0.2108
1012.00,0.2197
1011.00,0.2343
1010.00,0.2501
1009.00,0.2599
1008.00,0.2591
1007.00,0.2496
1006.00,0.2374
1005.00,0.2275
1004.00,0.2213
1003.00,0.2177
1002.00,0.2153
1001.00,0.2129
1000.00,0.2103
999.00,0.2080
998.00,0.2062
997.00,0.2047
996.00,0.2032
995.00,0.2019
994.00,0.2008
993.00,0.1997
992.00,0.1985
991.00,0.1974
990.00,0.1965
989.00,0.1956
988.00,0.1947
987.00,0.1937
986.00,0.1929
985.00,0.1921
984.00,0.1911
983.00,0.1902
982.00,0.1894
981.00,0.1885
980.00,0.1875
979.00,0.1865
978.00,0.1856
977.00,0.1848
976.00,0.1838
975.00,0.1829
974.00,0.1821
973.00,0.1813
972.00,0.1804
971.00,0.1796
970.00,0.1789
969.00,0.1781
968.00,0.1772
967.00,0.1763
966.00,0.1755
965.00,0.1748
964.00,0.1740
963.00,0.1731
962.00,0.1724
961.00,0.1715
960.00,0.1707
959.00,0.1699
958.00,0.1693
957.00,0.1686
956.00,0.1678
955.00,0.1670
954.00,0.1663
953.00,0.1656
952.00,0.1649
951.00,0.1642
950.00,0.1637
949.00,0.1633
948.00,0.1629
947.00,0.1627
946.00,0.1623
945.00,0.1618
944.00,0.1615
943.00,0.1626
942.00,0.1655
941.00,0.1690
940.00,0.1715
939.00,0.1717
938.00,0.1699
937.00,0.1670
936.00,0.1640
935.00,0.1615
934.00,0.1597
933.00,0.1583
932.00,0.1572
931.00,0.1565
930.00,0.1560
929.00,0.1556
928.00,0.1550
927.00,0.1544
926.00,0.1543
925.00,0.1548
924.00,0.1562
923.00,0.1585
922.00,0.1614
921.00,0.1635
920.00,0.1638
919.00,0.1622
918.00,0.1594
917.00,0.1561
916.00,0.1533
915.00,0.1512
914.00,0.1498
913.00,0.1488
912.00,0.1480
911.00,0.1474
910.00,0.1470
909.00,0.1468
908.00,0.1465
907.00,0.1464
906.00,0.1466
905.00,0.1469
904.00,0.1472
903.00,0.1476
902.00,0.1482
901.00,0.1488
900.00,0.1493
899.00,0.1499
898.00,0.1506
897.00,0.1513
896.00,0.1520
895.00,0.1528
894.00,0.1538
893.00,0.1546
892.00,0.1550
891.00,0.1551
890.00,0.1547
889.00,0.1538
888.00,0.1524
887.00,0.1506
886.00,0.1487
885.00,0.1468
884.00,0.1449
883.00,0.1433
882.00,0.1421
881.00,0.1411
880.00,0.1402
879.00,0.1394
878.00,0.1389
877.00,0.1386
876.00,0.1383
875.00,0.1380
874.00,0.1378
873.00,0.1375
872.00,0.1370
871.00,0.1367
870.00,0.1365
869.00,0.1364
868.00,0.1363
867.00,0.1364
866.00,0.1369
865.00,0.1374
864.00,0.1381
863.00,0.1390
862.00,0.1403
861.00,0.1418
860.00,0.1436
859.00,0.1460
858.00,0.1489
857.00,0.1521
856.00,0.1554
855.00,0.1588
854.00,0.1621
853.00,0.1645
852.00,0.1655
851.00,0.1656
850.00,0.1659
849.00,0.1675
848.00,0.1712
847.00,0.1771
846.00,0.1848
845.00,0.1941
844.00,0.2055
843.00,0.2194
842.00,0.2364
841.00,0.2567
840.00,0.2801
839.00,0.3058
838.00,0.3327
837.00,0.3602
836.00,0.3883
835.00,0.4171
834.00,0.4463
833.00,0.4741
832.00,0.4985
831.00,0.5181
830.00,0.5330
829.00,0.5452
828.00,0.5552
827.00,0.5590
826.00,0.5492
825.00,0.5227
824.00,0.4838
823.00,0.4415
822.00,0.4027
821.00,0.3705
820.00,0.3450
819.00,0.3254
818.00,0.3106
817.00,0.2994
816.00,0.2914
815.00,0.2861
814.00,0.2829
813.00,0.2815
812.00,0.2821
811.00,0.2857
810.00,0.2920
809.00,0.2987
808.00,0.3017
807.00,0.2987
806.00,0.2909
805.00,0.2815
804.00,0.2736
803.00,0.2681
802.00,0.2644
801.00,0.2617
800.00,0.2602
799.00,0.2602
798.00,0.2615
797.00,0.2633
796.00,0.2652
795.00,0.2673
794.00,0.2696
793.00,0.2724
792.00,0.2755
791.00,0.2792
790.00,0.2832
789.00,0.2876
788.00,0.2922
787.00,0.2973
786.00,0.3027
785.00,0.3084
784.00,0.3144
783.00,0.3206
782.00,0.3271
781.00,0.3338
780.00,0.3408
779.00,0.3482
778.00,0.3560
777.00,0.3643
776.00,0.3732
775.00,0.3831
774.00,0.3942
773.00,0.4070
772.00,0.4222
771.00,0.4403
770.00,0.4613
769.00,0.4839
768.00,0.5064
767.00,0.5267
766.00,0.5433
765.00,0.5570
764.00,0.5702
763.00,0.5861
762.00,0.6067
761.00,0.6318
760.00,0.6569
759.00,0.6723
758.00,0.6672
757.00,0.6382
756.00,0.5933
755.00,0.5447
754.00,0.5009
753.00,0.4653
752.00,0.4375
751.00,0.4165
750.00,0.4006
749.00,0.3887
748.00,0.3798
747.00,0.3732
746.00,0.3684
745.00,0.3646
744.00,0.3615
743.00,0.3589
742.00,0.3565
741.00,0.3542
740.00,0.3519
739.00,0.3496
738.00,0.3473
737.00,0.3447
736.00,0.3421
735.00,0.3393
734.00,0.3365
733.00,0.3336
732.00,0.3307
731.00,0.3278
730.00,0.3251
729.00,0.3225
728.00,0.3199
727.00,0.3175
726.00,0.3152
725.00,0.3131
724.00,0.3111
723.00,0.3092
722.00,0.3074
721.00,0.3057
720.00,0.3043
719.00,0.3033
718.00,0.3027
717.00,0.3022
716.00,0.3018
715.00,0.3016
714.00,0.3017
713.00,0.3022
712.00,0.3027
711.00,0.3033
710.00,0.3038
709.00,0.3042
708.00,0.3045
707.00,0.3053
706.00,0.3079
705.00,0.3143
704.00,0.3249
703.00,0.3380
702.00,0.3488
701.00,0.3537
700.00,0.3524
699.00,0.3482
698.00,0.3441
697.00,0.3416
696.00,0.3404
695.00,0.3400
694.00,0.3400
693.00,0.3400
692.00,0.3400
691.00,0.3400
690.00,0.3402
689.00,0.3404
688.00,0.3404
687.00,0.3403
686.00,0.3401
685.00,0.3396
684.00,0.3388
683.00,0.3378
682.00,0.3368
681.00,0.3356
680.00,0.3340
679.00,0.3323
678.00,0.3308
677.00,0.3292
676.00,0.3275
675.00,0.3257
674.00,0.3241
673.00,0.3225
672.00,0.3208
671.00,0.3195
670.00,0.3188
669.00,0.3182
668.00,0.3176
667.00,0.3169
666.00,0.3153
665.00,0.3132
664.00,0.3114
663.00,0.3102
662.00,0.3092
661.00,0.3084
660.00,0.3075
659.00,0.3067
658.00,0.3060
657.00,0.3053
656.00,0.3045
655.00,0.3038
654.00,0.3035
653.00,0.3042
652.00,0.3063
651.00,0.3103
650.00,0.3157
649.00,0.3209
648.00,0.3252
647.00,0.3287
646.00,0.3323
645.00,0.3360
644.00,0.3395
643.00,0.3422
642.00,0.3443
641.00,0.3463
640.00,0.3482
639.00,0.3502
638.00,0.3522
637.00,0.3543
636.00,0.3567
635.00,0.3598
634.00,0.3633
633.00,0.3672
632.00,0.3716
631.00,0.3764
630.00,0.3814
629.00,0.3867
628.00,0.3922
627.00,0.3981
626.00,0.4043
625.00,0.4106
624.00,0.4169
623.00,0.4231
622.00,0.4289
621.00,0.4344
620.00,0.4395
619.00,0.4441
618.00,0.4482
617.00,0.4519
616.00,0.4554
615.00,0.4583
614.00,0.4604
613.00,0.4617
612.00,0.4626
611.00,0.4630
610.00,0.4627
609.00,0.4616
608.00,0.4597
607.00,0.4571
606.00,0.4539
605.00,0.4503
604.00,0.4467
603.00,0.4431
602.00,0.4388
601.00,0.4332
600.00,0.4267
599.00,0.4200
598.00,0.4138
597.00,0.4081
596.00,0.4027
595.00,0.3972
594.00,0.3919
593.00,0.3864
592.00,0.3807
591.00,0.3752
590.00,0.3702
589.00,0.3656
588.00,0.3612
587.00,0.3568
586.00,0.3525
585.00,0.3481
584.00,0.3437
583.00,0.3395
582.00,0.3357
581.00,0.3317
580.00,0.3278
579.00,0.3243
578.00,0.3213
577.00,0.3184
576.00,0.3152
575.00,0.3121
574.00,0.3095
573.00,0.3071
572.00,0.3045
571.00,0.3020
570.00,0.2999
569.00,0.2978
568.00,0.2957
567.00,0.2937
566.00,0.2921
565.00,0.2906
564.00,0.2888
563.00,0.2871
562.00,0.2857
561.00,0.2843
560.00,0.2828
559.00,0.2814
558.00,0.2803
557.00,0.2792
556.00,0.2779
555.00,0.2767
554.00,0.2758
553.00,0.2747
552.00,0.2735
551.00,0.2723
550.00,0.2713
549.00,0.2702
548.00,0.2689
547.00,0.2677
546.00,0.2667
545.00,0.2655
544.00,0.2642
543.00,0.2631
542.00,0.2623
541.00,0.2613
540.00,0.2599
539.00,0.2585
538.00,0.2574
537.00,0.2563
536.00,0.2547
535.00,0.2532
534.00,0.2522
533.00,0.2513
532.00,0.2511
531.00,0.2529
530.00,0.2588
529.00,0.2697
528.00,0.2869
527.00,0.3107
526.00,0.3363
525.00,0.3543
524.00,0.3608
523.00,0.3611
522.00,0.3627
521.00,0.3697
520.00,0.3838
519.00,0.4049
518.00,0.4281
517.00,0.4418
516.00,0.4358
515.00,0.4128
514.00,0.3846
513.00,0.3598
512.00,0.3411
511.00,0.3282
510.00,0.3193
509.00,0.3129
508.00,0.3078
507.00,0.3034
506.00,0.2999
505.00,0.2971
504.00,0.2949
503.00,0.2933
502.00,0.2922
501.00,0.2913
500.00,0.2906
499.00,0.2902
498.00,0.2901
497.00,0.2903
496.00,0.2905
495.00,0.2912
494.00,0.2926
493.00,0.2943
492.00,0.2962
491.00,0.2981
490.00,0.3001
489.00,0.3020
488.00,0.3034
487.00,0.3043
486.00,0.3047
485.00,0.3042
484.00,0.3030
483.00,0.3020
482.00,0.3017
481.00,0.3019
480.00,0.3025
479.00,0.3038
478.00,0.3058
477.00,0.3074
476.00,0.3079
475.00,0.3074
474.00,0.3065
473.00,0.3049
472.00,0.3028
471.00,0.3009
470.00,0.3001
469.00,0.3000
468.00,0.3001
467.00,0.3006
466.00,0.3012
465.00,0.3014
464.00,0.3010
463.00,0.3004
462.00,0.2998
461.00,0.2990
460.00,0.2977
459.00,0.2961
458.00,0.2941
457.00,0.2913
456.00,0.2881
455.00,0.2858
454.00,0.2841
453.00,0.2821
452.00,0.2796
451.00,0.2775
450.00,0.2762
449.00,0.2750
448.00,0.2734
447.00,0.2719
446.00,0.2714
445.00,0.2710
444.00,0.2702
443.00,0.2696
442.00,0.2695
441.00,0.2694
440.00,0.2688
439.00,0.2687
438.00,0.2694
437.00,0.2700
436.00,0.2699
435.00,0.2699
434.00,0.2707
433.00,0.2713
432.00,0.2711
431.00,0.2711
430.00,0.2721
429.00,0.2732
428.00,0.2733
427.00,0.2733
426.00,0.2736
425.00,0.2741
424.00,0.2742
423.00,0.2755
422.00,0.2785
421.00,0.2815
420.00,0.2840
419.00,0.2890
418.00,0.2973
417.00,0.3035
416.00,0.3078
415.00,0.3123
414.00,0.3176
413.00,0.3222
412.00,0.3258
411.00,0.3295
410.00,0.3335
409.00,0.3364
408.00,0.3372
407.00,0.3370
406.00,0.3362
405.00,0.3342
404.00,0.3308
403.00,0.3284
402.00,0.3282
401.00,0.3288
400.00,0.3281
